trialResp.keys,trialResp.corr,trialResp.rt,loop.thisRepN,loop.thisTrialN,loop.thisN,loop.thisIndex,loop.ran,loop.order,imagefile,corrAns,angle,participant,session,date,expName,psychopyVersion,frameRate
d,1,9.518999815,1,0,100,96,1,99,i45_100_R.jpg,d,100,1605,001,2020-10-15_15h53.19.634,MentalRotationFinal,3.1.2,60
d,1,7.361999989,1,0,100,78,1,99,i36_100_R.jpg,d,100,1605,001,2020-10-15_15h53.19.634,MentalRotationFinal,3.1.2,60
d,1,8.34800005,1,0,100,89,1,99,i41_100_R.jpg,d,100,1605,001,2020-10-15_15h53.19.634,MentalRotationFinal,3.1.2,60
d,1,6.779000044,1,0,100,28,1,99,i13_150_R.jpg,d,150,1605,001,2020-10-15_15h53.19.634,MentalRotationFinal,3.1.2,60
d,1,9.963000059,1,0,100,76,1,99,i35_100_R.jpg,d,100,1605,001,2020-10-15_15h53.19.634,MentalRotationFinal,3.1.2,60
s,1,2.595000029,1,0,100,41,1,99,i19_50.jpg,s,50,1605,001,2020-10-15_15h53.19.634,MentalRotationFinal,3.1.2,60
s,0,16.51699996,1,0,100,80,1,99,i37_100_R.jpg,d,100,1605,001,2020-10-15_15h53.19.634,MentalRotationFinal,3.1.2,60
s,1,4.627000093,1,0,100,83,1,99,i38_150.jpg,s,150,1605,001,2020-10-15_15h53.19.634,MentalRotationFinal,3.1.2,60
d,1,4.129000187,1,0,100,52,1,99,i24_150_R.jpg,d,150,1605,001,2020-10-15_15h53.19.634,MentalRotationFinal,3.1.2,60
s,1,2.263000011,1,0,100,51,1,99,i24_50.jpg,s,50,1605,001,2020-10-15_15h53.19.634,MentalRotationFinal,3.1.2,60
d,1,4.512999773,1,0,100,87,1,99,i40_100_R.jpg,d,100,1605,001,2020-10-15_15h53.19.634,MentalRotationFinal,3.1.2,60
d,1,17.33300018,1,0,100,16,1,99,i8_50_R.jpg,d,50,1605,001,2020-10-15_15h53.19.634,MentalRotationFinal,3.1.2,60
s,1,1.910999775,1,0,100,34,1,99,i16_50.jpg,s,50,1605,001,2020-10-15_15h53.19.634,MentalRotationFinal,3.1.2,60
s,1,12.31200004,1,0,100,64,1,99,i29_150.jpg,s,150,1605,001,2020-10-15_15h53.19.634,MentalRotationFinal,3.1.2,60
d,1,4.515000105,1,0,100,3,1,99,i2_50_R.jpg,d,50,1605,001,2020-10-15_15h53.19.634,MentalRotationFinal,3.1.2,60
s,1,4.510000229,1,0,100,13,1,99,i6_100.jpg,s,100,1605,001,2020-10-15_15h53.19.634,MentalRotationFinal,3.1.2,60
d,1,2.613999844,1,0,100,32,1,99,i15_50_R.jpg,d,50,1605,001,2020-10-15_15h53.19.634,MentalRotationFinal,3.1.2,60
s,1,5.630000114,1,0,100,53,1,99,i25_0.jpg,s,0,1605,001,2020-10-15_15h53.19.634,MentalRotationFinal,3.1.2,60
s,0,4.095000029,1,0,100,25,1,99,i12_50_R.jpg,d,50,1605,001,2020-10-15_15h53.19.634,MentalRotationFinal,3.1.2,60
s,1,5.080000162,1,0,100,26,1,99,i12_100.jpg,s,100,1605,001,2020-10-15_15h53.19.634,MentalRotationFinal,3.1.2,60
d,1,16.9460001,1,0,100,93,1,99,i43_100_R.jpg,d,100,1605,001,2020-10-15_15h53.19.634,MentalRotationFinal,3.1.2,60
d,1,3.345000029,1,0,100,27,1,99,i13_50_R.jpg,d,50,1605,001,2020-10-15_15h53.19.634,MentalRotationFinal,3.1.2,60
d,1,16.06299996,1,0,100,12,1,99,i6_50_R.jpg,d,50,1605,001,2020-10-15_15h53.19.634,MentalRotationFinal,3.1.2,60
s,1,2.514000177,1,0,100,4,1,99,i2_100.jpg,s,100,1605,001,2020-10-15_15h53.19.634,MentalRotationFinal,3.1.2,60
s,1,5.046000004,1,0,100,58,1,99,i27_50.jpg,s,50,1605,001,2020-10-15_15h53.19.634,MentalRotationFinal,3.1.2,60
s,1,2.394999981,1,0,100,63,1,99,i29_50.jpg,s,50,1605,001,2020-10-15_15h53.19.634,MentalRotationFinal,3.1.2,60
s,1,2.612999916,1,0,100,17,1,99,i8_100.jpg,s,100,1605,001,2020-10-15_15h53.19.634,MentalRotationFinal,3.1.2,60
d,1,8.911999941,1,0,100,33,1,99,i15_150_R.jpg,d,150,1605,001,2020-10-15_15h53.19.634,MentalRotationFinal,3.1.2,60
s,1,8.315999985,1,0,100,66,1,99,i30_150.jpg,s,150,1605,001,2020-10-15_15h53.19.634,MentalRotationFinal,3.1.2,60
s,1,9.878999949,1,0,100,77,1,99,i35_150.jpg,s,150,1605,001,2020-10-15_15h53.19.634,MentalRotationFinal,3.1.2,60
d,1,10.06299996,1,0,100,30,1,99,i14_50_R.jpg,d,50,1605,001,2020-10-15_15h53.19.634,MentalRotationFinal,3.1.2,60
d,1,10.63100004,1,0,100,57,1,99,i26_150_R.jpg,d,150,1605,001,2020-10-15_15h53.19.634,MentalRotationFinal,3.1.2,60
s,1,19.52999997,1,0,100,88,1,99,i40_150.jpg,s,150,1605,001,2020-10-15_15h53.19.634,MentalRotationFinal,3.1.2,60
s,1,1.894999981,1,0,100,84,1,99,i39_0.jpg,s,0,1605,001,2020-10-15_15h53.19.634,MentalRotationFinal,3.1.2,60
s,1,4.913000107,1,0,100,24,1,99,i11_100.jpg,s,100,1605,001,2020-10-15_15h53.19.634,MentalRotationFinal,3.1.2,60
d,1,8.315000057,1,0,100,7,1,99,i4_50_R.jpg,d,50,1605,001,2020-10-15_15h53.19.634,MentalRotationFinal,3.1.2,60
d,1,4.062000036,1,0,100,46,1,99,i21_150_R.jpg,d,150,1605,001,2020-10-15_15h53.19.634,MentalRotationFinal,3.1.2,60
s,0,9.129999876,1,0,100,67,1,99,i31_100_R.jpg,d,100,1605,001,2020-10-15_15h53.19.634,MentalRotationFinal,3.1.2,60
s,1,9.878999949,1,0,100,72,1,99,i33_150.jpg,s,150,1605,001,2020-10-15_15h53.19.634,MentalRotationFinal,3.1.2,60
d,1,5.298000097,1,0,100,48,1,99,i22_150_R.jpg,d,150,1605,001,2020-10-15_15h53.19.634,MentalRotationFinal,3.1.2,60
s,1,8.562000036,1,0,100,81,1,99,i37_150.jpg,s,150,1605,001,2020-10-15_15h53.19.634,MentalRotationFinal,3.1.2,60
s,1,11.44699979,1,0,100,68,1,99,i31_150.jpg,s,150,1605,001,2020-10-15_15h53.19.634,MentalRotationFinal,3.1.2,60
s,1,4.578999996,1,0,100,2,1,99,i1_100.jpg,s,100,1605,001,2020-10-15_15h53.19.634,MentalRotationFinal,3.1.2,60
d,1,4.381000042,1,0,100,5,1,99,i3_50_R.jpg,d,50,1605,001,2020-10-15_15h53.19.634,MentalRotationFinal,3.1.2,60
s,1,2.697000027,1,0,100,18,1,99,i9_0.jpg,s,0,1605,001,2020-10-15_15h53.19.634,MentalRotationFinal,3.1.2,60
d,1,5.680999994,1,0,100,35,1,99,i16_150_R.jpg,d,150,1605,001,2020-10-15_15h53.19.634,MentalRotationFinal,3.1.2,60
s,1,0.86500001,1,0,100,94,1,99,i44_0.jpg,s,0,1605,001,2020-10-15_15h53.19.634,MentalRotationFinal,3.1.2,60
s,1,5.894999981,1,0,100,47,1,99,i22_50.jpg,s,50,1605,001,2020-10-15_15h53.19.634,MentalRotationFinal,3.1.2,60
s,1,1.095999956,1,0,100,0,1,99,i1_0.jpg,s,0,1605,001,2020-10-15_15h53.19.634,MentalRotationFinal,3.1.2,60
d,1,6.428999901,1,0,100,14,1,99,i7_50_R.jpg,d,50,1605,001,2020-10-15_15h53.19.634,MentalRotationFinal,3.1.2,60
d,1,7.113000154,1,0,100,31,1,99,i14_150_R.jpg,d,150,1605,001,2020-10-15_15h53.19.634,MentalRotationFinal,3.1.2,60
s,1,2.961999893,1,0,100,56,1,99,i26_50.jpg,s,50,1605,001,2020-10-15_15h53.19.634,MentalRotationFinal,3.1.2,60
s,1,4.678999901,1,0,100,36,1,99,i17_50.jpg,s,50,1605,001,2020-10-15_15h53.19.634,MentalRotationFinal,3.1.2,60
s,1,1.246000051,1,0,100,75,1,99,i35_0.jpg,s,0,1605,001,2020-10-15_15h53.19.634,MentalRotationFinal,3.1.2,60
s,1,2.178999901,1,0,100,40,1,99,i19_0.jpg,s,0,1605,001,2020-10-15_15h53.19.634,MentalRotationFinal,3.1.2,60
s,1,1.194000006,1,0,100,9,1,99,i5_0.jpg,s,0,1605,001,2020-10-15_15h53.19.634,MentalRotationFinal,3.1.2,60
d,1,2.597000122,1,0,100,91,1,99,i42_100_R.jpg,d,100,1605,001,2020-10-15_15h53.19.634,MentalRotationFinal,3.1.2,60
d,1,5.164999962,1,0,100,23,1,99,i11_50_R.jpg,d,50,1605,001,2020-10-15_15h53.19.634,MentalRotationFinal,3.1.2,60
d,1,4.328999996,1,0,100,44,1,99,i20_150_R.jpg,d,150,1605,001,2020-10-15_15h53.19.634,MentalRotationFinal,3.1.2,60
d,1,3.877000093,1,0,100,73,1,99,i34_100_R.jpg,d,100,1605,001,2020-10-15_15h53.19.634,MentalRotationFinal,3.1.2,60
s,1,8.180000067,1,0,100,99,1,99,i48_100.jpg,s,100,1605,001,2020-10-15_15h53.19.634,MentalRotationFinal,3.1.2,60
s,1,7.562999964,1,0,100,86,1,99,i39_150.jpg,s,150,1605,001,2020-10-15_15h53.19.634,MentalRotationFinal,3.1.2,60
d,1,5.014000177,1,0,100,42,1,99,i19_150_R.jpg,d,150,1605,001,2020-10-15_15h53.19.634,MentalRotationFinal,3.1.2,60
s,1,8.679999828,1,0,100,61,1,99,i28_150.jpg,s,150,1605,001,2020-10-15_15h53.19.634,MentalRotationFinal,3.1.2,60
d,1,5.546000004,1,0,100,21,1,99,i10_50_R.jpg,d,50,1605,001,2020-10-15_15h53.19.634,MentalRotationFinal,3.1.2,60
d,1,18,1,0,100,59,1,99,i27_150_R.jpg,d,150,1605,001,2020-10-15_15h53.19.634,MentalRotationFinal,3.1.2,60
s,1,4.52699995,1,0,100,90,1,99,i41_150.jpg,s,150,1605,001,2020-10-15_15h53.19.634,MentalRotationFinal,3.1.2,60
s,1,8.795000076,1,0,100,6,1,99,i3_100.jpg,s,100,1605,001,2020-10-15_15h53.19.634,MentalRotationFinal,3.1.2,60
d,0,6.496000051,1,0,100,15,1,99,i7_100.jpg,s,100,1605,001,2020-10-15_15h53.19.634,MentalRotationFinal,3.1.2,60
s,1,7.210000038,1,0,100,79,1,99,i36_150.jpg,s,150,1605,001,2020-10-15_15h53.19.634,MentalRotationFinal,3.1.2,60
s,1,1.235000134,1,0,100,29,1,99,i14_0.jpg,s,0,1605,001,2020-10-15_15h53.19.634,MentalRotationFinal,3.1.2,60
s,1,5.811999798,1,0,100,8,1,99,i4_100.jpg,s,100,1605,001,2020-10-15_15h53.19.634,MentalRotationFinal,3.1.2,60
s,1,3.679999828,1,0,100,54,1,99,i25_50.jpg,s,50,1605,001,2020-10-15_15h53.19.634,MentalRotationFinal,3.1.2,60
s,1,6.529000044,1,0,100,38,1,99,i18_50.jpg,s,50,1605,001,2020-10-15_15h53.19.634,MentalRotationFinal,3.1.2,60
s,1,3.128999949,1,0,100,43,1,99,i20_50.jpg,s,50,1605,001,2020-10-15_15h53.19.634,MentalRotationFinal,3.1.2,60
d,0,5.247999907,1,0,100,70,1,99,i32_150.jpg,s,150,1605,001,2020-10-15_15h53.19.634,MentalRotationFinal,3.1.2,60
d,1,5.111999989,1,0,100,39,1,99,i18_150_R.jpg,d,150,1605,001,2020-10-15_15h53.19.634,MentalRotationFinal,3.1.2,60
s,1,6.328000069,1,0,100,20,1,99,i9_100.jpg,s,100,1605,001,2020-10-15_15h53.19.634,MentalRotationFinal,3.1.2,60
s,1,8.362999916,1,0,100,45,1,99,i21_50.jpg,s,50,1605,001,2020-10-15_15h53.19.634,MentalRotationFinal,3.1.2,60
d,1,5.695999861,1,0,100,95,1,99,i44_100_R.jpg,d,100,1605,001,2020-10-15_15h53.19.634,MentalRotationFinal,3.1.2,60
d,1,5.011999846,1,0,100,50,1,99,i23_150_R.jpg,d,150,1605,001,2020-10-15_15h53.19.634,MentalRotationFinal,3.1.2,60
d,1,1.244999886,1,0,100,1,1,99,i1_50_R.jpg,d,50,1605,001,2020-10-15_15h53.19.634,MentalRotationFinal,3.1.2,60
d,1,3.698999882,1,0,100,55,1,99,i25_150_R.jpg,d,150,1605,001,2020-10-15_15h53.19.634,MentalRotationFinal,3.1.2,60
d,1,1.678999901,1,0,100,19,1,99,i9_50_R.jpg,d,50,1605,001,2020-10-15_15h53.19.634,MentalRotationFinal,3.1.2,60
s,1,5.712999821,1,0,100,22,1,99,i10_100.jpg,s,100,1605,001,2020-10-15_15h53.19.634,MentalRotationFinal,3.1.2,60
s,1,3.000999928,1,0,100,92,1,99,i42_150.jpg,s,150,1605,001,2020-10-15_15h53.19.634,MentalRotationFinal,3.1.2,60
d,1,1.926999807,1,0,100,69,1,99,i32_100_R.jpg,d,100,1605,001,2020-10-15_15h53.19.634,MentalRotationFinal,3.1.2,60
s,1,1.749000072,1,0,100,65,1,99,i30_50.jpg,s,50,1605,001,2020-10-15_15h53.19.634,MentalRotationFinal,3.1.2,60
d,1,3.931999922,1,0,100,37,1,99,i17_150_R.jpg,d,150,1605,001,2020-10-15_15h53.19.634,MentalRotationFinal,3.1.2,60
s,1,2.528000116,1,0,100,98,1,99,i47_100.jpg,s,100,1605,001,2020-10-15_15h53.19.634,MentalRotationFinal,3.1.2,60
d,1,5.279999971,1,0,100,10,1,99,i5_50_R.jpg,d,50,1605,001,2020-10-15_15h53.19.634,MentalRotationFinal,3.1.2,60
d,1,2.361000061,1,0,100,85,1,99,i39_100_R.jpg,d,100,1605,001,2020-10-15_15h53.19.634,MentalRotationFinal,3.1.2,60
d,1,3.195999861,1,0,100,82,1,99,i38_100_R.jpg,d,100,1605,001,2020-10-15_15h53.19.634,MentalRotationFinal,3.1.2,60
s,1,2.945999861,1,0,100,49,1,99,i23_50.jpg,s,50,1605,001,2020-10-15_15h53.19.634,MentalRotationFinal,3.1.2,60
s,1,10.67999983,1,0,100,11,1,99,i5_100.jpg,s,100,1605,001,2020-10-15_15h53.19.634,MentalRotationFinal,3.1.2,60
s,1,5.380000114,1,0,100,60,1,99,i28_50.jpg,s,50,1605,001,2020-10-15_15h53.19.634,MentalRotationFinal,3.1.2,60
s,1,1.376999855,1,0,100,62,1,99,i29_0.jpg,s,0,1605,001,2020-10-15_15h53.19.634,MentalRotationFinal,3.1.2,60
s,1,5.829999924,1,0,100,97,1,99,i46_100.jpg,s,100,1605,001,2020-10-15_15h53.19.634,MentalRotationFinal,3.1.2,60
s,1,4.995999813,1,0,100,74,1,99,i34_150.jpg,s,150,1605,001,2020-10-15_15h53.19.634,MentalRotationFinal,3.1.2,60
d,1,7.428999901,1,0,100,71,1,99,i33_100_R.jpg,d,100,1605,001,2020-10-15_15h53.19.634,MentalRotationFinal,3.1.2,60
