trialResp.keys,trialResp.corr,trialResp.rt,loop.thisRepN,loop.thisTrialN,loop.thisN,loop.thisIndex,loop.ran,loop.order,imagefile,corrAns,angle,participant,session,date,expName,psychopyVersion,frameRate
s,1,4.107000113,1,0,100,41,1,99,i19_50.jpg,s,50,2408,001,2020-10-16_13h51.36.282,MentalRotationFinal,3.1.2,60
d,1,3.124000072,1,0,100,87,1,99,i40_100_R.jpg,d,100,2408,001,2020-10-16_13h51.36.282,MentalRotationFinal,3.1.2,60
s,1,3.842000008,1,0,100,99,1,99,i48_100.jpg,s,100,2408,001,2020-10-16_13h51.36.282,MentalRotationFinal,3.1.2,60
s,1,4.220999956,1,0,100,65,1,99,i30_50.jpg,s,50,2408,001,2020-10-16_13h51.36.282,MentalRotationFinal,3.1.2,60
s,1,2.457999945,1,0,100,63,1,99,i29_50.jpg,s,50,2408,001,2020-10-16_13h51.36.282,MentalRotationFinal,3.1.2,60
d,1,3.074999809,1,0,100,3,1,99,i2_50_R.jpg,d,50,2408,001,2020-10-16_13h51.36.282,MentalRotationFinal,3.1.2,60
d,1,4.558000088,1,0,100,27,1,99,i13_50_R.jpg,d,50,2408,001,2020-10-16_13h51.36.282,MentalRotationFinal,3.1.2,60
d,1,2.756999969,1,0,100,48,1,99,i22_150_R.jpg,d,150,2408,001,2020-10-16_13h51.36.282,MentalRotationFinal,3.1.2,60
s,1,2.072999954,1,0,100,60,1,99,i28_50.jpg,s,50,2408,001,2020-10-16_13h51.36.282,MentalRotationFinal,3.1.2,60
s,0,2.940999985,1,0,100,42,1,99,i19_150_R.jpg,d,150,2408,001,2020-10-16_13h51.36.282,MentalRotationFinal,3.1.2,60
s,0,5.942000151,1,0,100,69,1,99,i32_100_R.jpg,d,100,2408,001,2020-10-16_13h51.36.282,MentalRotationFinal,3.1.2,60
s,1,7.154999971,1,0,100,66,1,99,i30_150.jpg,s,150,2408,001,2020-10-16_13h51.36.282,MentalRotationFinal,3.1.2,60
s,1,2.42200017,1,0,100,18,1,99,i9_0.jpg,s,0,2408,001,2020-10-16_13h51.36.282,MentalRotationFinal,3.1.2,60
d,1,3.041000128,1,0,100,89,1,99,i41_100_R.jpg,d,100,2408,001,2020-10-16_13h51.36.282,MentalRotationFinal,3.1.2,60
s,1,2.49000001,1,0,100,43,1,99,i20_50.jpg,s,50,2408,001,2020-10-16_13h51.36.282,MentalRotationFinal,3.1.2,60
s,1,2.972000122,1,0,100,75,1,99,i35_0.jpg,s,0,2408,001,2020-10-16_13h51.36.282,MentalRotationFinal,3.1.2,60
s,1,2.490999937,1,0,100,51,1,99,i24_50.jpg,s,50,2408,001,2020-10-16_13h51.36.282,MentalRotationFinal,3.1.2,60
s,0,4.623999834,1,0,100,19,1,99,i9_50_R.jpg,d,50,2408,001,2020-10-16_13h51.36.282,MentalRotationFinal,3.1.2,60
d,1,6.875,1,0,100,21,1,99,i10_50_R.jpg,d,50,2408,001,2020-10-16_13h51.36.282,MentalRotationFinal,3.1.2,60
s,1,3.338999987,1,0,100,8,1,99,i4_100.jpg,s,100,2408,001,2020-10-16_13h51.36.282,MentalRotationFinal,3.1.2,60
s,1,8.99000001,1,0,100,77,1,99,i35_150.jpg,s,150,2408,001,2020-10-16_13h51.36.282,MentalRotationFinal,3.1.2,60
d,1,6.440999985,1,0,100,67,1,99,i31_100_R.jpg,d,100,2408,001,2020-10-16_13h51.36.282,MentalRotationFinal,3.1.2,60
s,1,5.039000034,1,0,100,97,1,99,i46_100.jpg,s,100,2408,001,2020-10-16_13h51.36.282,MentalRotationFinal,3.1.2,60
s,1,5.257999897,1,0,100,56,1,99,i26_50.jpg,s,50,2408,001,2020-10-16_13h51.36.282,MentalRotationFinal,3.1.2,60
s,0,3.540999889,1,0,100,57,1,99,i26_150_R.jpg,d,150,2408,001,2020-10-16_13h51.36.282,MentalRotationFinal,3.1.2,60
s,1,5.05700016,1,0,100,81,1,99,i37_150.jpg,s,150,2408,001,2020-10-16_13h51.36.282,MentalRotationFinal,3.1.2,60
d,1,10.38999987,1,0,100,5,1,99,i3_50_R.jpg,d,50,2408,001,2020-10-16_13h51.36.282,MentalRotationFinal,3.1.2,60
s,1,4.804000139,1,0,100,92,1,99,i42_150.jpg,s,150,2408,001,2020-10-16_13h51.36.282,MentalRotationFinal,3.1.2,60
d,0,2.188000202,1,0,100,47,1,99,i22_50.jpg,s,50,2408,001,2020-10-16_13h51.36.282,MentalRotationFinal,3.1.2,60
s,1,2.103999853,1,0,100,45,1,99,i21_50.jpg,s,50,2408,001,2020-10-16_13h51.36.282,MentalRotationFinal,3.1.2,60
d,1,3.522000074,1,0,100,28,1,99,i13_150_R.jpg,d,150,2408,001,2020-10-16_13h51.36.282,MentalRotationFinal,3.1.2,60
s,1,4.80700016,1,0,100,61,1,99,i28_150.jpg,s,150,2408,001,2020-10-16_13h51.36.282,MentalRotationFinal,3.1.2,60
d,1,3.923999786,1,0,100,10,1,99,i5_50_R.jpg,d,50,2408,001,2020-10-16_13h51.36.282,MentalRotationFinal,3.1.2,60
s,0,2.705999851,1,0,100,80,1,99,i37_100_R.jpg,d,100,2408,001,2020-10-16_13h51.36.282,MentalRotationFinal,3.1.2,60
s,0,3.34100008,1,0,100,91,1,99,i42_100_R.jpg,d,100,2408,001,2020-10-16_13h51.36.282,MentalRotationFinal,3.1.2,60
d,1,1.940000057,1,0,100,1,1,99,i1_50_R.jpg,d,50,2408,001,2020-10-16_13h51.36.282,MentalRotationFinal,3.1.2,60
s,1,3.90899992,1,0,100,15,1,99,i7_100.jpg,s,100,2408,001,2020-10-16_13h51.36.282,MentalRotationFinal,3.1.2,60
d,1,4.154000044,1,0,100,23,1,99,i11_50_R.jpg,d,50,2408,001,2020-10-16_13h51.36.282,MentalRotationFinal,3.1.2,60
d,1,5.954999924,1,0,100,95,1,99,i44_100_R.jpg,d,100,2408,001,2020-10-16_13h51.36.282,MentalRotationFinal,3.1.2,60
s,1,3.809000015,1,0,100,22,1,99,i10_100.jpg,s,100,2408,001,2020-10-16_13h51.36.282,MentalRotationFinal,3.1.2,60
s,1,2.575000048,1,0,100,9,1,99,i5_0.jpg,s,0,2408,001,2020-10-16_13h51.36.282,MentalRotationFinal,3.1.2,60
s,0,5.858999968,1,0,100,78,1,99,i36_100_R.jpg,d,100,2408,001,2020-10-16_13h51.36.282,MentalRotationFinal,3.1.2,60
s,1,3.575999975,1,0,100,53,1,99,i25_0.jpg,s,0,2408,001,2020-10-16_13h51.36.282,MentalRotationFinal,3.1.2,60
s,1,4.725000143,1,0,100,36,1,99,i17_50.jpg,s,50,2408,001,2020-10-16_13h51.36.282,MentalRotationFinal,3.1.2,60
d,1,6.940999985,1,0,100,16,1,99,i8_50_R.jpg,d,50,2408,001,2020-10-16_13h51.36.282,MentalRotationFinal,3.1.2,60
s,1,2.173999786,1,0,100,2,1,99,i1_100.jpg,s,100,2408,001,2020-10-16_13h51.36.282,MentalRotationFinal,3.1.2,60
s,1,1.725000143,1,0,100,84,1,99,i39_0.jpg,s,0,2408,001,2020-10-16_13h51.36.282,MentalRotationFinal,3.1.2,60
d,1,4.10800004,1,0,100,73,1,99,i34_100_R.jpg,d,100,2408,001,2020-10-16_13h51.36.282,MentalRotationFinal,3.1.2,60
d,1,2.924999952,1,0,100,30,1,99,i14_50_R.jpg,d,50,2408,001,2020-10-16_13h51.36.282,MentalRotationFinal,3.1.2,60
s,1,1.925000191,1,0,100,24,1,99,i11_100.jpg,s,100,2408,001,2020-10-16_13h51.36.282,MentalRotationFinal,3.1.2,60
s,1,5.34100008,1,0,100,74,1,99,i34_150.jpg,s,150,2408,001,2020-10-16_13h51.36.282,MentalRotationFinal,3.1.2,60
d,1,4.74000001,1,0,100,96,1,99,i45_100_R.jpg,d,100,2408,001,2020-10-16_13h51.36.282,MentalRotationFinal,3.1.2,60
s,1,1.239000082,1,0,100,40,1,99,i19_0.jpg,s,0,2408,001,2020-10-16_13h51.36.282,MentalRotationFinal,3.1.2,60
d,1,7.656000137,1,0,100,7,1,99,i4_50_R.jpg,d,50,2408,001,2020-10-16_13h51.36.282,MentalRotationFinal,3.1.2,60
s,0,5.390999794,1,0,100,93,1,99,i43_100_R.jpg,d,100,2408,001,2020-10-16_13h51.36.282,MentalRotationFinal,3.1.2,60
d,1,2.225000143,1,0,100,14,1,99,i7_50_R.jpg,d,50,2408,001,2020-10-16_13h51.36.282,MentalRotationFinal,3.1.2,60
s,1,1.291000128,1,0,100,62,1,99,i29_0.jpg,s,0,2408,001,2020-10-16_13h51.36.282,MentalRotationFinal,3.1.2,60
s,1,0.940999985,1,0,100,94,1,99,i44_0.jpg,s,0,2408,001,2020-10-16_13h51.36.282,MentalRotationFinal,3.1.2,60
s,1,2.838999987,1,0,100,17,1,99,i8_100.jpg,s,100,2408,001,2020-10-16_13h51.36.282,MentalRotationFinal,3.1.2,60
s,1,0.990999937,1,0,100,0,1,99,i1_0.jpg,s,0,2408,001,2020-10-16_13h51.36.282,MentalRotationFinal,3.1.2,60
d,1,6.107000113,1,0,100,46,1,99,i21_150_R.jpg,d,150,2408,001,2020-10-16_13h51.36.282,MentalRotationFinal,3.1.2,60
s,1,6.792000055,1,0,100,20,1,99,i9_100.jpg,s,100,2408,001,2020-10-16_13h51.36.282,MentalRotationFinal,3.1.2,60
d,0,1.357000113,1,0,100,34,1,99,i16_50.jpg,s,50,2408,001,2020-10-16_13h51.36.282,MentalRotationFinal,3.1.2,60
d,1,2.38499999,1,0,100,39,1,99,i18_150_R.jpg,d,150,2408,001,2020-10-16_13h51.36.282,MentalRotationFinal,3.1.2,60
s,1,2.092000008,1,0,100,38,1,99,i18_50.jpg,s,50,2408,001,2020-10-16_13h51.36.282,MentalRotationFinal,3.1.2,60
d,1,3.638000011,1,0,100,37,1,99,i17_150_R.jpg,d,150,2408,001,2020-10-16_13h51.36.282,MentalRotationFinal,3.1.2,60
d,1,4.404999971,1,0,100,31,1,99,i14_150_R.jpg,d,150,2408,001,2020-10-16_13h51.36.282,MentalRotationFinal,3.1.2,60
d,1,3.572000027,1,0,100,82,1,99,i38_100_R.jpg,d,100,2408,001,2020-10-16_13h51.36.282,MentalRotationFinal,3.1.2,60
d,1,2.558000088,1,0,100,52,1,99,i24_150_R.jpg,d,150,2408,001,2020-10-16_13h51.36.282,MentalRotationFinal,3.1.2,60
d,1,6.875999928,1,0,100,50,1,99,i23_150_R.jpg,d,150,2408,001,2020-10-16_13h51.36.282,MentalRotationFinal,3.1.2,60
s,1,1.223999977,1,0,100,58,1,99,i27_50.jpg,s,50,2408,001,2020-10-16_13h51.36.282,MentalRotationFinal,3.1.2,60
d,1,3.957999945,1,0,100,25,1,99,i12_50_R.jpg,d,50,2408,001,2020-10-16_13h51.36.282,MentalRotationFinal,3.1.2,60
d,1,7.574999809,1,0,100,59,1,99,i27_150_R.jpg,d,150,2408,001,2020-10-16_13h51.36.282,MentalRotationFinal,3.1.2,60
s,1,1.889999866,1,0,100,68,1,99,i31_150.jpg,s,150,2408,001,2020-10-16_13h51.36.282,MentalRotationFinal,3.1.2,60
d,0,6.040999889,1,0,100,98,1,99,i47_100.jpg,s,100,2408,001,2020-10-16_13h51.36.282,MentalRotationFinal,3.1.2,60
s,1,3.506999969,1,0,100,54,1,99,i25_50.jpg,s,50,2408,001,2020-10-16_13h51.36.282,MentalRotationFinal,3.1.2,60
s,1,2.57400012,1,0,100,83,1,99,i38_150.jpg,s,150,2408,001,2020-10-16_13h51.36.282,MentalRotationFinal,3.1.2,60
s,1,1.874000072,1,0,100,86,1,99,i39_150.jpg,s,150,2408,001,2020-10-16_13h51.36.282,MentalRotationFinal,3.1.2,60
s,1,2.707999945,1,0,100,64,1,99,i29_150.jpg,s,150,2408,001,2020-10-16_13h51.36.282,MentalRotationFinal,3.1.2,60
s,1,2.757999897,1,0,100,26,1,99,i12_100.jpg,s,100,2408,001,2020-10-16_13h51.36.282,MentalRotationFinal,3.1.2,60
d,1,1.457000017,1,0,100,32,1,99,i15_50_R.jpg,d,50,2408,001,2020-10-16_13h51.36.282,MentalRotationFinal,3.1.2,60
d,1,4.257000208,1,0,100,35,1,99,i16_150_R.jpg,d,150,2408,001,2020-10-16_13h51.36.282,MentalRotationFinal,3.1.2,60
s,1,4.64199996,1,0,100,88,1,99,i40_150.jpg,s,150,2408,001,2020-10-16_13h51.36.282,MentalRotationFinal,3.1.2,60
s,0,2.274999857,1,0,100,71,1,99,i33_100_R.jpg,d,100,2408,001,2020-10-16_13h51.36.282,MentalRotationFinal,3.1.2,60
d,1,3.558000088,1,0,100,55,1,99,i25_150_R.jpg,d,150,2408,001,2020-10-16_13h51.36.282,MentalRotationFinal,3.1.2,60
s,1,3.157999992,1,0,100,11,1,99,i5_100.jpg,s,100,2408,001,2020-10-16_13h51.36.282,MentalRotationFinal,3.1.2,60
s,1,3.470999956,1,0,100,70,1,99,i32_150.jpg,s,150,2408,001,2020-10-16_13h51.36.282,MentalRotationFinal,3.1.2,60
s,1,2.254999876,1,0,100,49,1,99,i23_50.jpg,s,50,2408,001,2020-10-16_13h51.36.282,MentalRotationFinal,3.1.2,60
d,1,2.275000095,1,0,100,33,1,99,i15_150_R.jpg,d,150,2408,001,2020-10-16_13h51.36.282,MentalRotationFinal,3.1.2,60
d,1,3.608999968,1,0,100,76,1,99,i35_100_R.jpg,d,100,2408,001,2020-10-16_13h51.36.282,MentalRotationFinal,3.1.2,60
s,1,3.074999809,1,0,100,13,1,99,i6_100.jpg,s,100,2408,001,2020-10-16_13h51.36.282,MentalRotationFinal,3.1.2,60
s,1,3.875,1,0,100,72,1,99,i33_150.jpg,s,150,2408,001,2020-10-16_13h51.36.282,MentalRotationFinal,3.1.2,60
d,1,3.388999939,1,0,100,85,1,99,i39_100_R.jpg,d,100,2408,001,2020-10-16_13h51.36.282,MentalRotationFinal,3.1.2,60
s,0,3.421999931,1,0,100,44,1,99,i20_150_R.jpg,d,150,2408,001,2020-10-16_13h51.36.282,MentalRotationFinal,3.1.2,60
s,1,3.707999945,1,0,100,79,1,99,i36_150.jpg,s,150,2408,001,2020-10-16_13h51.36.282,MentalRotationFinal,3.1.2,60
s,1,2.304000139,1,0,100,90,1,99,i41_150.jpg,s,150,2408,001,2020-10-16_13h51.36.282,MentalRotationFinal,3.1.2,60
d,0,3.22300005,1,0,100,6,1,99,i3_100.jpg,s,100,2408,001,2020-10-16_13h51.36.282,MentalRotationFinal,3.1.2,60
s,1,4.406999826,1,0,100,4,1,99,i2_100.jpg,s,100,2408,001,2020-10-16_13h51.36.282,MentalRotationFinal,3.1.2,60
d,1,6.541000128,1,0,100,12,1,99,i6_50_R.jpg,d,50,2408,001,2020-10-16_13h51.36.282,MentalRotationFinal,3.1.2,60
s,1,1.157000065,1,0,100,29,1,99,i14_0.jpg,s,0,2408,001,2020-10-16_13h51.36.282,MentalRotationFinal,3.1.2,60
