trialResp.keys,trialResp.corr,trialResp.rt,loop.thisRepN,loop.thisTrialN,loop.thisN,loop.thisIndex,loop.ran,loop.order,imagefile,corrAns,angle,participant,session,date,expName,psychopyVersion,frameRate
d,1,6.888999939,1,0,100,3,1,99,i2_50_R.jpg,d,50,3134,001,2020-10-13_11h01.59.961,MentalRotationFinal,3.1.2,60
s,1,6.611999989,1,0,100,36,1,99,i17_50.jpg,s,50,3134,001,2020-10-13_11h01.59.961,MentalRotationFinal,3.1.2,60
s,1,6.665999889,1,0,100,86,1,99,i39_150.jpg,s,150,3134,001,2020-10-13_11h01.59.961,MentalRotationFinal,3.1.2,60
d,0,5.21600008,1,0,100,77,1,99,i35_150.jpg,s,150,3134,001,2020-10-13_11h01.59.961,MentalRotationFinal,3.1.2,60
s,1,4.359999895,1,0,100,51,1,99,i24_50.jpg,s,50,3134,001,2020-10-13_11h01.59.961,MentalRotationFinal,3.1.2,60
d,1,13.81900001,1,0,100,71,1,99,i33_100_R.jpg,d,100,3134,001,2020-10-13_11h01.59.961,MentalRotationFinal,3.1.2,60
s,1,5.479000092,1,0,100,65,1,99,i30_50.jpg,s,50,3134,001,2020-10-13_11h01.59.961,MentalRotationFinal,3.1.2,60
s,1,5.748000145,1,0,100,62,1,99,i29_0.jpg,s,0,3134,001,2020-10-13_11h01.59.961,MentalRotationFinal,3.1.2,60
s,1,6.538000107,1,0,100,60,1,99,i28_50.jpg,s,50,3134,001,2020-10-13_11h01.59.961,MentalRotationFinal,3.1.2,60
s,1,6.813999891,1,0,100,4,1,99,i2_100.jpg,s,100,3134,001,2020-10-13_11h01.59.961,MentalRotationFinal,3.1.2,60
d,1,4.704999924,1,0,100,85,1,99,i39_100_R.jpg,d,100,3134,001,2020-10-13_11h01.59.961,MentalRotationFinal,3.1.2,60
d,1,8.658000231,1,0,100,87,1,99,i40_100_R.jpg,d,100,3134,001,2020-10-13_11h01.59.961,MentalRotationFinal,3.1.2,60
d,1,13.454,1,0,100,52,1,99,i24_150_R.jpg,d,150,3134,001,2020-10-13_11h01.59.961,MentalRotationFinal,3.1.2,60
d,1,2.46600008,1,0,100,27,1,99,i13_50_R.jpg,d,50,3134,001,2020-10-13_11h01.59.961,MentalRotationFinal,3.1.2,60
d,0,7.097999811,1,0,100,79,1,99,i36_150.jpg,s,150,3134,001,2020-10-13_11h01.59.961,MentalRotationFinal,3.1.2,60
s,1,5.787999868,1,0,100,83,1,99,i38_150.jpg,s,150,3134,001,2020-10-13_11h01.59.961,MentalRotationFinal,3.1.2,60
d,0,12.52200007,1,0,100,24,1,99,i11_100.jpg,s,100,3134,001,2020-10-13_11h01.59.961,MentalRotationFinal,3.1.2,60
d,1,13.69799995,1,0,100,96,1,99,i45_100_R.jpg,d,100,3134,001,2020-10-13_11h01.59.961,MentalRotationFinal,3.1.2,60
s,1,3.375999928,1,0,100,47,1,99,i22_50.jpg,s,50,3134,001,2020-10-13_11h01.59.961,MentalRotationFinal,3.1.2,60
s,1,13.04500008,1,0,100,8,1,99,i4_100.jpg,s,100,3134,001,2020-10-13_11h01.59.961,MentalRotationFinal,3.1.2,60
d,1,12.03700018,1,0,100,67,1,99,i31_100_R.jpg,d,100,3134,001,2020-10-13_11h01.59.961,MentalRotationFinal,3.1.2,60
s,1,8.878999949,1,0,100,66,1,99,i30_150.jpg,s,150,3134,001,2020-10-13_11h01.59.961,MentalRotationFinal,3.1.2,60
s,1,5.459000111,1,0,100,90,1,99,i41_150.jpg,s,150,3134,001,2020-10-13_11h01.59.961,MentalRotationFinal,3.1.2,60
d,1,10.1170001,1,0,100,23,1,99,i11_50_R.jpg,d,50,3134,001,2020-10-13_11h01.59.961,MentalRotationFinal,3.1.2,60
d,1,11.00900006,1,0,100,10,1,99,i5_50_R.jpg,d,50,3134,001,2020-10-13_11h01.59.961,MentalRotationFinal,3.1.2,60
d,1,15.15699983,1,0,100,59,1,99,i27_150_R.jpg,d,150,3134,001,2020-10-13_11h01.59.961,MentalRotationFinal,3.1.2,60
s,1,1.599999905,1,0,100,38,1,99,i18_50.jpg,s,50,3134,001,2020-10-13_11h01.59.961,MentalRotationFinal,3.1.2,60
s,1,7.24000001,1,0,100,11,1,99,i5_100.jpg,s,100,3134,001,2020-10-13_11h01.59.961,MentalRotationFinal,3.1.2,60
d,1,7.519999981,1,0,100,35,1,99,i16_150_R.jpg,d,150,3134,001,2020-10-13_11h01.59.961,MentalRotationFinal,3.1.2,60
d,1,11.39499998,1,0,100,32,1,99,i15_50_R.jpg,d,50,3134,001,2020-10-13_11h01.59.961,MentalRotationFinal,3.1.2,60
s,1,2.967999935,1,0,100,20,1,99,i9_100.jpg,s,100,3134,001,2020-10-13_11h01.59.961,MentalRotationFinal,3.1.2,60
d,1,13.04199982,1,0,100,44,1,99,i20_150_R.jpg,d,150,3134,001,2020-10-13_11h01.59.961,MentalRotationFinal,3.1.2,60
s,1,2.505999804,1,0,100,97,1,99,i46_100.jpg,s,100,3134,001,2020-10-13_11h01.59.961,MentalRotationFinal,3.1.2,60
s,1,6.836000204,1,0,100,84,1,99,i39_0.jpg,s,0,3134,001,2020-10-13_11h01.59.961,MentalRotationFinal,3.1.2,60
s,1,7.608999968,1,0,100,13,1,99,i6_100.jpg,s,100,3134,001,2020-10-13_11h01.59.961,MentalRotationFinal,3.1.2,60
d,1,6.847999811,1,0,100,93,1,99,i43_100_R.jpg,d,100,3134,001,2020-10-13_11h01.59.961,MentalRotationFinal,3.1.2,60
s,0,8.496999979,1,0,100,89,1,99,i41_100_R.jpg,d,100,3134,001,2020-10-13_11h01.59.961,MentalRotationFinal,3.1.2,60
s,0,2.970999956,1,0,100,91,1,99,i42_100_R.jpg,d,100,3134,001,2020-10-13_11h01.59.961,MentalRotationFinal,3.1.2,60
s,0,1.886000156,1,0,100,95,1,99,i44_100_R.jpg,d,100,3134,001,2020-10-13_11h01.59.961,MentalRotationFinal,3.1.2,60
s,1,2.949999809,1,0,100,98,1,99,i47_100.jpg,s,100,3134,001,2020-10-13_11h01.59.961,MentalRotationFinal,3.1.2,60
s,1,1.275000095,1,0,100,75,1,99,i35_0.jpg,s,0,3134,001,2020-10-13_11h01.59.961,MentalRotationFinal,3.1.2,60
d,1,16.99199986,1,0,100,78,1,99,i36_100_R.jpg,d,100,3134,001,2020-10-13_11h01.59.961,MentalRotationFinal,3.1.2,60
s,0,8.024999857,1,0,100,50,1,99,i23_150_R.jpg,d,150,3134,001,2020-10-13_11h01.59.961,MentalRotationFinal,3.1.2,60
s,1,1.078999996,1,0,100,29,1,99,i14_0.jpg,s,0,3134,001,2020-10-13_11h01.59.961,MentalRotationFinal,3.1.2,60
d,1,8.809999943,1,0,100,76,1,99,i35_100_R.jpg,d,100,3134,001,2020-10-13_11h01.59.961,MentalRotationFinal,3.1.2,60
s,1,8.739000082,1,0,100,43,1,99,i20_50.jpg,s,50,3134,001,2020-10-13_11h01.59.961,MentalRotationFinal,3.1.2,60
s,1,1.861000061,1,0,100,58,1,99,i27_50.jpg,s,50,3134,001,2020-10-13_11h01.59.961,MentalRotationFinal,3.1.2,60
d,1,4.700999975,1,0,100,31,1,99,i14_150_R.jpg,d,150,3134,001,2020-10-13_11h01.59.961,MentalRotationFinal,3.1.2,60
s,1,2.530999899,1,0,100,2,1,99,i1_100.jpg,s,100,3134,001,2020-10-13_11h01.59.961,MentalRotationFinal,3.1.2,60
d,1,3.631000042,1,0,100,1,1,99,i1_50_R.jpg,d,50,3134,001,2020-10-13_11h01.59.961,MentalRotationFinal,3.1.2,60
s,1,1.513000011,1,0,100,49,1,99,i23_50.jpg,s,50,3134,001,2020-10-13_11h01.59.961,MentalRotationFinal,3.1.2,60
s,1,4.620999813,1,0,100,15,1,99,i7_100.jpg,s,100,3134,001,2020-10-13_11h01.59.961,MentalRotationFinal,3.1.2,60
s,1,1.464999914,1,0,100,34,1,99,i16_50.jpg,s,50,3134,001,2020-10-13_11h01.59.961,MentalRotationFinal,3.1.2,60
s,1,10.00999999,1,0,100,72,1,99,i33_150.jpg,s,150,3134,001,2020-10-13_11h01.59.961,MentalRotationFinal,3.1.2,60
s,1,2.417000055,1,0,100,63,1,99,i29_50.jpg,s,50,3134,001,2020-10-13_11h01.59.961,MentalRotationFinal,3.1.2,60
d,1,4.202000141,1,0,100,16,1,99,i8_50_R.jpg,d,50,3134,001,2020-10-13_11h01.59.961,MentalRotationFinal,3.1.2,60
d,1,9.430000067,1,0,100,82,1,99,i38_100_R.jpg,d,100,3134,001,2020-10-13_11h01.59.961,MentalRotationFinal,3.1.2,60
s,1,7.733999968,1,0,100,99,1,99,i48_100.jpg,s,100,3134,001,2020-10-13_11h01.59.961,MentalRotationFinal,3.1.2,60
s,1,10.19100022,1,0,100,68,1,99,i31_150.jpg,s,150,3134,001,2020-10-13_11h01.59.961,MentalRotationFinal,3.1.2,60
s,0,8.105000019,1,0,100,57,1,99,i26_150_R.jpg,d,150,3134,001,2020-10-13_11h01.59.961,MentalRotationFinal,3.1.2,60
s,1,4.76699996,1,0,100,88,1,99,i40_150.jpg,s,150,3134,001,2020-10-13_11h01.59.961,MentalRotationFinal,3.1.2,60
s,1,10.83299994,1,0,100,81,1,99,i37_150.jpg,s,150,3134,001,2020-10-13_11h01.59.961,MentalRotationFinal,3.1.2,60
d,1,2.11500001,1,0,100,48,1,99,i22_150_R.jpg,d,150,3134,001,2020-10-13_11h01.59.961,MentalRotationFinal,3.1.2,60
s,1,2.678999901,1,0,100,64,1,99,i29_150.jpg,s,150,3134,001,2020-10-13_11h01.59.961,MentalRotationFinal,3.1.2,60
d,1,6.350999832,1,0,100,46,1,99,i21_150_R.jpg,d,150,3134,001,2020-10-13_11h01.59.961,MentalRotationFinal,3.1.2,60
s,1,2.348999977,1,0,100,26,1,99,i12_100.jpg,s,100,3134,001,2020-10-13_11h01.59.961,MentalRotationFinal,3.1.2,60
d,1,5.637000084,1,0,100,33,1,99,i15_150_R.jpg,d,150,3134,001,2020-10-13_11h01.59.961,MentalRotationFinal,3.1.2,60
d,1,6.795000076,1,0,100,37,1,99,i17_150_R.jpg,d,150,3134,001,2020-10-13_11h01.59.961,MentalRotationFinal,3.1.2,60
s,1,1.471999884,1,0,100,94,1,99,i44_0.jpg,s,0,3134,001,2020-10-13_11h01.59.961,MentalRotationFinal,3.1.2,60
d,1,4.42599988,1,0,100,73,1,99,i34_100_R.jpg,d,100,3134,001,2020-10-13_11h01.59.961,MentalRotationFinal,3.1.2,60
s,0,2.379000187,1,0,100,19,1,99,i9_50_R.jpg,d,50,3134,001,2020-10-13_11h01.59.961,MentalRotationFinal,3.1.2,60
d,1,10.18199992,1,0,100,55,1,99,i25_150_R.jpg,d,150,3134,001,2020-10-13_11h01.59.961,MentalRotationFinal,3.1.2,60
d,1,4.575999975,1,0,100,80,1,99,i37_100_R.jpg,d,100,3134,001,2020-10-13_11h01.59.961,MentalRotationFinal,3.1.2,60
d,1,20.75,1,0,100,7,1,99,i4_50_R.jpg,d,50,3134,001,2020-10-13_11h01.59.961,MentalRotationFinal,3.1.2,60
s,1,8.780999899,1,0,100,74,1,99,i34_150.jpg,s,150,3134,001,2020-10-13_11h01.59.961,MentalRotationFinal,3.1.2,60
s,1,1.200000048,1,0,100,9,1,99,i5_0.jpg,s,0,3134,001,2020-10-13_11h01.59.961,MentalRotationFinal,3.1.2,60
s,1,3.78399992,1,0,100,70,1,99,i32_150.jpg,s,150,3134,001,2020-10-13_11h01.59.961,MentalRotationFinal,3.1.2,60
d,1,5.683000088,1,0,100,25,1,99,i12_50_R.jpg,d,50,3134,001,2020-10-13_11h01.59.961,MentalRotationFinal,3.1.2,60
s,1,0.933000088,1,0,100,40,1,99,i19_0.jpg,s,0,3134,001,2020-10-13_11h01.59.961,MentalRotationFinal,3.1.2,60
s,1,2.323999882,1,0,100,53,1,99,i25_0.jpg,s,0,3134,001,2020-10-13_11h01.59.961,MentalRotationFinal,3.1.2,60
s,1,4.09100008,1,0,100,6,1,99,i3_100.jpg,s,100,3134,001,2020-10-13_11h01.59.961,MentalRotationFinal,3.1.2,60
s,1,2.985999823,1,0,100,22,1,99,i10_100.jpg,s,100,3134,001,2020-10-13_11h01.59.961,MentalRotationFinal,3.1.2,60
d,1,6.754999876,1,0,100,28,1,99,i13_150_R.jpg,d,150,3134,001,2020-10-13_11h01.59.961,MentalRotationFinal,3.1.2,60
s,1,6.060000181,1,0,100,17,1,99,i8_100.jpg,s,100,3134,001,2020-10-13_11h01.59.961,MentalRotationFinal,3.1.2,60
s,0,8.770999908,1,0,100,30,1,99,i14_50_R.jpg,d,50,3134,001,2020-10-13_11h01.59.961,MentalRotationFinal,3.1.2,60
s,1,0.957000017,1,0,100,0,1,99,i1_0.jpg,s,0,3134,001,2020-10-13_11h01.59.961,MentalRotationFinal,3.1.2,60
d,1,4.628000021,1,0,100,39,1,99,i18_150_R.jpg,d,150,3134,001,2020-10-13_11h01.59.961,MentalRotationFinal,3.1.2,60
d,1,4.934000015,1,0,100,21,1,99,i10_50_R.jpg,d,50,3134,001,2020-10-13_11h01.59.961,MentalRotationFinal,3.1.2,60
s,1,1.882999897,1,0,100,41,1,99,i19_50.jpg,s,50,3134,001,2020-10-13_11h01.59.961,MentalRotationFinal,3.1.2,60
d,1,8.01699996,1,0,100,12,1,99,i6_50_R.jpg,d,50,3134,001,2020-10-13_11h01.59.961,MentalRotationFinal,3.1.2,60
s,0,3.462000132,1,0,100,42,1,99,i19_150_R.jpg,d,150,3134,001,2020-10-13_11h01.59.961,MentalRotationFinal,3.1.2,60
s,1,5.74000001,1,0,100,61,1,99,i28_150.jpg,s,150,3134,001,2020-10-13_11h01.59.961,MentalRotationFinal,3.1.2,60
s,0,2.246000051,1,0,100,14,1,99,i7_50_R.jpg,d,50,3134,001,2020-10-13_11h01.59.961,MentalRotationFinal,3.1.2,60
s,1,2.141000032,1,0,100,45,1,99,i21_50.jpg,s,50,3134,001,2020-10-13_11h01.59.961,MentalRotationFinal,3.1.2,60
s,1,2.881999969,1,0,100,56,1,99,i26_50.jpg,s,50,3134,001,2020-10-13_11h01.59.961,MentalRotationFinal,3.1.2,60
s,1,1.097000122,1,0,100,18,1,99,i9_0.jpg,s,0,3134,001,2020-10-13_11h01.59.961,MentalRotationFinal,3.1.2,60
d,0,4.399999857,1,0,100,92,1,99,i42_150.jpg,s,150,3134,001,2020-10-13_11h01.59.961,MentalRotationFinal,3.1.2,60
s,0,7.026000023,1,0,100,5,1,99,i3_50_R.jpg,d,50,3134,001,2020-10-13_11h01.59.961,MentalRotationFinal,3.1.2,60
d,1,2.732000113,1,0,100,69,1,99,i32_100_R.jpg,d,100,3134,001,2020-10-13_11h01.59.961,MentalRotationFinal,3.1.2,60
s,1,1.243000031,1,0,100,54,1,99,i25_50.jpg,s,50,3134,001,2020-10-13_11h01.59.961,MentalRotationFinal,3.1.2,60
