trialResp.keys,trialResp.corr,trialResp.rt,loop.thisRepN,loop.thisTrialN,loop.thisN,loop.thisIndex,loop.ran,loop.order,imagefile,corrAns,angle,participant,session,date,expName,psychopyVersion,frameRate
s,0,13.66100001,1,0,100,76,1,99,i35_100_R.jpg,d,100,AEB98,001,2020-12-20_10h25.30.885,MentalRotationFinal,3.1.2,60
s,1,2.740999937,1,0,100,75,1,99,i35_0.jpg,s,0,AEB98,001,2020-12-20_10h25.30.885,MentalRotationFinal,3.1.2,60
s,0,5.068000078,1,0,100,5,1,99,i3_50_R.jpg,d,50,AEB98,001,2020-12-20_10h25.30.885,MentalRotationFinal,3.1.2,60
d,1,3.169999838,1,0,100,14,1,99,i7_50_R.jpg,d,50,AEB98,001,2020-12-20_10h25.30.885,MentalRotationFinal,3.1.2,60
d,1,14.28199983,1,0,100,95,1,99,i44_100_R.jpg,d,100,AEB98,001,2020-12-20_10h25.30.885,MentalRotationFinal,3.1.2,60
s,0,2.588000059,1,0,100,50,1,99,i23_150_R.jpg,d,150,AEB98,001,2020-12-20_10h25.30.885,MentalRotationFinal,3.1.2,60
d,1,3.618999958,1,0,100,93,1,99,i43_100_R.jpg,d,100,AEB98,001,2020-12-20_10h25.30.885,MentalRotationFinal,3.1.2,60
d,0,3.072999954,1,0,100,74,1,99,i34_150.jpg,s,150,AEB98,001,2020-12-20_10h25.30.885,MentalRotationFinal,3.1.2,60
d,0,2.328000069,1,0,100,92,1,99,i42_150.jpg,s,150,AEB98,001,2020-12-20_10h25.30.885,MentalRotationFinal,3.1.2,60
d,1,1.960000038,1,0,100,39,1,99,i18_150_R.jpg,d,150,AEB98,001,2020-12-20_10h25.30.885,MentalRotationFinal,3.1.2,60
s,0,1.928999901,1,0,100,7,1,99,i4_50_R.jpg,d,50,AEB98,001,2020-12-20_10h25.30.885,MentalRotationFinal,3.1.2,60
d,0,1.281000137,1,0,100,66,1,99,i30_150.jpg,s,150,AEB98,001,2020-12-20_10h25.30.885,MentalRotationFinal,3.1.2,60
s,1,0.980999947,1,0,100,13,1,99,i6_100.jpg,s,100,AEB98,001,2020-12-20_10h25.30.885,MentalRotationFinal,3.1.2,60
d,1,1.096999884,1,0,100,71,1,99,i33_100_R.jpg,d,100,AEB98,001,2020-12-20_10h25.30.885,MentalRotationFinal,3.1.2,60
d,0,1.114000082,1,0,100,88,1,99,i40_150.jpg,s,150,AEB98,001,2020-12-20_10h25.30.885,MentalRotationFinal,3.1.2,60
s,1,0.893000126,1,0,100,24,1,99,i11_100.jpg,s,100,AEB98,001,2020-12-20_10h25.30.885,MentalRotationFinal,3.1.2,60
d,1,0.930999994,1,0,100,19,1,99,i9_50_R.jpg,d,50,AEB98,001,2020-12-20_10h25.30.885,MentalRotationFinal,3.1.2,60
d,0,0.848999977,1,0,100,77,1,99,i35_150.jpg,s,150,AEB98,001,2020-12-20_10h25.30.885,MentalRotationFinal,3.1.2,60
s,1,0.857000113,1,0,100,47,1,99,i22_50.jpg,s,50,AEB98,001,2020-12-20_10h25.30.885,MentalRotationFinal,3.1.2,60
d,0,0.799000025,1,0,100,86,1,99,i39_150.jpg,s,150,AEB98,001,2020-12-20_10h25.30.885,MentalRotationFinal,3.1.2,60
s,0,0.832999945,1,0,100,3,1,99,i2_50_R.jpg,d,50,AEB98,001,2020-12-20_10h25.30.885,MentalRotationFinal,3.1.2,60
d,1,0.799999952,1,0,100,32,1,99,i15_50_R.jpg,d,50,AEB98,001,2020-12-20_10h25.30.885,MentalRotationFinal,3.1.2,60
d,0,1.227999926,1,0,100,54,1,99,i25_50.jpg,s,50,AEB98,001,2020-12-20_10h25.30.885,MentalRotationFinal,3.1.2,60
s,1,0.940000057,1,0,100,8,1,99,i4_100.jpg,s,100,AEB98,001,2020-12-20_10h25.30.885,MentalRotationFinal,3.1.2,60
s,0,1.297999859,1,0,100,30,1,99,i14_50_R.jpg,d,50,AEB98,001,2020-12-20_10h25.30.885,MentalRotationFinal,3.1.2,60
d,0,1.961000204,1,0,100,61,1,99,i28_150.jpg,s,150,AEB98,001,2020-12-20_10h25.30.885,MentalRotationFinal,3.1.2,60
d,1,2.691999912,1,0,100,96,1,99,i45_100_R.jpg,d,100,AEB98,001,2020-12-20_10h25.30.885,MentalRotationFinal,3.1.2,60
s,1,1.762000084,1,0,100,51,1,99,i24_50.jpg,s,50,AEB98,001,2020-12-20_10h25.30.885,MentalRotationFinal,3.1.2,60
d,1,1.707000017,1,0,100,46,1,99,i21_150_R.jpg,d,150,AEB98,001,2020-12-20_10h25.30.885,MentalRotationFinal,3.1.2,60
s,0,1.673999786,1,0,100,78,1,99,i36_100_R.jpg,d,100,AEB98,001,2020-12-20_10h25.30.885,MentalRotationFinal,3.1.2,60
d,1,2.062000036,1,0,100,27,1,99,i13_50_R.jpg,d,50,AEB98,001,2020-12-20_10h25.30.885,MentalRotationFinal,3.1.2,60
s,1,1.597999811,1,0,100,83,1,99,i38_150.jpg,s,150,AEB98,001,2020-12-20_10h25.30.885,MentalRotationFinal,3.1.2,60
d,0,1.049000025,1,0,100,18,1,99,i9_0.jpg,s,0,AEB98,001,2020-12-20_10h25.30.885,MentalRotationFinal,3.1.2,60
s,1,1.299999952,1,0,100,0,1,99,i1_0.jpg,s,0,AEB98,001,2020-12-20_10h25.30.885,MentalRotationFinal,3.1.2,60
d,0,1.361999989,1,0,100,65,1,99,i30_50.jpg,s,50,AEB98,001,2020-12-20_10h25.30.885,MentalRotationFinal,3.1.2,60
s,0,1.312000036,1,0,100,23,1,99,i11_50_R.jpg,d,50,AEB98,001,2020-12-20_10h25.30.885,MentalRotationFinal,3.1.2,60
d,0,1.697999954,1,0,100,41,1,99,i19_50.jpg,s,50,AEB98,001,2020-12-20_10h25.30.885,MentalRotationFinal,3.1.2,60
d,0,1.407000065,1,0,100,49,1,99,i23_50.jpg,s,50,AEB98,001,2020-12-20_10h25.30.885,MentalRotationFinal,3.1.2,60
s,0,1.580999851,1,0,100,1,1,99,i1_50_R.jpg,d,50,AEB98,001,2020-12-20_10h25.30.885,MentalRotationFinal,3.1.2,60
s,1,1.648000002,1,0,100,45,1,99,i21_50.jpg,s,50,AEB98,001,2020-12-20_10h25.30.885,MentalRotationFinal,3.1.2,60
d,0,2.362999916,1,0,100,58,1,99,i27_50.jpg,s,50,AEB98,001,2020-12-20_10h25.30.885,MentalRotationFinal,3.1.2,60
s,1,1.855999947,1,0,100,17,1,99,i8_100.jpg,s,100,AEB98,001,2020-12-20_10h25.30.885,MentalRotationFinal,3.1.2,60
d,1,1.796000004,1,0,100,80,1,99,i37_100_R.jpg,d,100,AEB98,001,2020-12-20_10h25.30.885,MentalRotationFinal,3.1.2,60
s,0,1.298000097,1,0,100,57,1,99,i26_150_R.jpg,d,150,AEB98,001,2020-12-20_10h25.30.885,MentalRotationFinal,3.1.2,60
d,1,1.492000103,1,0,100,31,1,99,i14_150_R.jpg,d,150,AEB98,001,2020-12-20_10h25.30.885,MentalRotationFinal,3.1.2,60
s,0,1.06400013,1,0,100,25,1,99,i12_50_R.jpg,d,50,AEB98,001,2020-12-20_10h25.30.885,MentalRotationFinal,3.1.2,60
d,0,1.214999914,1,0,100,11,1,99,i5_100.jpg,s,100,AEB98,001,2020-12-20_10h25.30.885,MentalRotationFinal,3.1.2,60
s,1,0.865999937,1,0,100,20,1,99,i9_100.jpg,s,100,AEB98,001,2020-12-20_10h25.30.885,MentalRotationFinal,3.1.2,60
d,0,1.145000219,1,0,100,81,1,99,i37_150.jpg,s,150,AEB98,001,2020-12-20_10h25.30.885,MentalRotationFinal,3.1.2,60
s,0,0.840999842,1,0,100,33,1,99,i15_150_R.jpg,d,150,AEB98,001,2020-12-20_10h25.30.885,MentalRotationFinal,3.1.2,60
d,0,1,1,0,100,98,1,99,i47_100.jpg,s,100,AEB98,001,2020-12-20_10h25.30.885,MentalRotationFinal,3.1.2,60
s,0,0.881999969,1,0,100,91,1,99,i42_100_R.jpg,d,100,AEB98,001,2020-12-20_10h25.30.885,MentalRotationFinal,3.1.2,60
d,1,0.96600008,1,0,100,69,1,99,i32_100_R.jpg,d,100,AEB98,001,2020-12-20_10h25.30.885,MentalRotationFinal,3.1.2,60
s,1,1.427000046,1,0,100,94,1,99,i44_0.jpg,s,0,AEB98,001,2020-12-20_10h25.30.885,MentalRotationFinal,3.1.2,60
d,0,1.550000191,1,0,100,79,1,99,i36_150.jpg,s,150,AEB98,001,2020-12-20_10h25.30.885,MentalRotationFinal,3.1.2,60
s,1,0.98300004,1,0,100,90,1,99,i41_150.jpg,s,150,AEB98,001,2020-12-20_10h25.30.885,MentalRotationFinal,3.1.2,60
d,1,1.132999897,1,0,100,12,1,99,i6_50_R.jpg,d,50,AEB98,001,2020-12-20_10h25.30.885,MentalRotationFinal,3.1.2,60
s,0,1.148999929,1,0,100,73,1,99,i34_100_R.jpg,d,100,AEB98,001,2020-12-20_10h25.30.885,MentalRotationFinal,3.1.2,60
d,0,1.180999994,1,0,100,99,1,99,i48_100.jpg,s,100,AEB98,001,2020-12-20_10h25.30.885,MentalRotationFinal,3.1.2,60
s,0,1.148999929,1,0,100,28,1,99,i13_150_R.jpg,d,150,AEB98,001,2020-12-20_10h25.30.885,MentalRotationFinal,3.1.2,60
d,1,1.098999977,1,0,100,52,1,99,i24_150_R.jpg,d,150,AEB98,001,2020-12-20_10h25.30.885,MentalRotationFinal,3.1.2,60
s,1,1.047999859,1,0,100,9,1,99,i5_0.jpg,s,0,AEB98,001,2020-12-20_10h25.30.885,MentalRotationFinal,3.1.2,60
d,0,1.575999975,1,0,100,70,1,99,i32_150.jpg,s,150,AEB98,001,2020-12-20_10h25.30.885,MentalRotationFinal,3.1.2,60
s,1,1.410999775,1,0,100,60,1,99,i28_50.jpg,s,50,AEB98,001,2020-12-20_10h25.30.885,MentalRotationFinal,3.1.2,60
s,1,1.898000002,1,0,100,38,1,99,i18_50.jpg,s,50,AEB98,001,2020-12-20_10h25.30.885,MentalRotationFinal,3.1.2,60
s,0,2.371000051,1,0,100,35,1,99,i16_150_R.jpg,d,150,AEB98,001,2020-12-20_10h25.30.885,MentalRotationFinal,3.1.2,60
s,1,1.425000191,1,0,100,2,1,99,i1_100.jpg,s,100,AEB98,001,2020-12-20_10h25.30.885,MentalRotationFinal,3.1.2,60
d,0,1.597000122,1,0,100,34,1,99,i16_50.jpg,s,50,AEB98,001,2020-12-20_10h25.30.885,MentalRotationFinal,3.1.2,60
d,1,4.917000055,1,0,100,55,1,99,i25_150_R.jpg,d,150,AEB98,001,2020-12-20_10h25.30.885,MentalRotationFinal,3.1.2,60
d,0,3.286000013,1,0,100,68,1,99,i31_150.jpg,s,150,AEB98,001,2020-12-20_10h25.30.885,MentalRotationFinal,3.1.2,60
s,0,1.538999796,1,0,100,85,1,99,i39_100_R.jpg,d,100,AEB98,001,2020-12-20_10h25.30.885,MentalRotationFinal,3.1.2,60
d,1,1.323999882,1,0,100,82,1,99,i38_100_R.jpg,d,100,AEB98,001,2020-12-20_10h25.30.885,MentalRotationFinal,3.1.2,60
s,1,1.622999907,1,0,100,84,1,99,i39_0.jpg,s,0,AEB98,001,2020-12-20_10h25.30.885,MentalRotationFinal,3.1.2,60
d,1,1.198999882,1,0,100,21,1,99,i10_50_R.jpg,d,50,AEB98,001,2020-12-20_10h25.30.885,MentalRotationFinal,3.1.2,60
s,0,1.207999945,1,0,100,87,1,99,i40_100_R.jpg,d,100,AEB98,001,2020-12-20_10h25.30.885,MentalRotationFinal,3.1.2,60
d,0,1.383000135,1,0,100,15,1,99,i7_100.jpg,s,100,AEB98,001,2020-12-20_10h25.30.885,MentalRotationFinal,3.1.2,60
s,1,1.398000002,1,0,100,6,1,99,i3_100.jpg,s,100,AEB98,001,2020-12-20_10h25.30.885,MentalRotationFinal,3.1.2,60
d,1,5.230000019,1,0,100,67,1,99,i31_100_R.jpg,d,100,AEB98,001,2020-12-20_10h25.30.885,MentalRotationFinal,3.1.2,60
s,1,3.254000187,1,0,100,4,1,99,i2_100.jpg,s,100,AEB98,001,2020-12-20_10h25.30.885,MentalRotationFinal,3.1.2,60
d,1,3.75999999,1,0,100,89,1,99,i41_100_R.jpg,d,100,AEB98,001,2020-12-20_10h25.30.885,MentalRotationFinal,3.1.2,60
d,1,2.845000029,1,0,100,44,1,99,i20_150_R.jpg,d,150,AEB98,001,2020-12-20_10h25.30.885,MentalRotationFinal,3.1.2,60
s,1,3.951999903,1,0,100,72,1,99,i33_150.jpg,s,150,AEB98,001,2020-12-20_10h25.30.885,MentalRotationFinal,3.1.2,60
d,0,4.137000084,1,0,100,63,1,99,i29_50.jpg,s,50,AEB98,001,2020-12-20_10h25.30.885,MentalRotationFinal,3.1.2,60
s,1,2.263999939,1,0,100,97,1,99,i46_100.jpg,s,100,AEB98,001,2020-12-20_10h25.30.885,MentalRotationFinal,3.1.2,60
s,1,3.503000021,1,0,100,56,1,99,i26_50.jpg,s,50,AEB98,001,2020-12-20_10h25.30.885,MentalRotationFinal,3.1.2,60
s,1,3.323000193,1,0,100,36,1,99,i17_50.jpg,s,50,AEB98,001,2020-12-20_10h25.30.885,MentalRotationFinal,3.1.2,60
s,0,5.154999971,1,0,100,16,1,99,i8_50_R.jpg,d,50,AEB98,001,2020-12-20_10h25.30.885,MentalRotationFinal,3.1.2,60
s,1,0.898999929,1,0,100,40,1,99,i19_0.jpg,s,0,AEB98,001,2020-12-20_10h25.30.885,MentalRotationFinal,3.1.2,60
d,1,3.478000164,1,0,100,10,1,99,i5_50_R.jpg,d,50,AEB98,001,2020-12-20_10h25.30.885,MentalRotationFinal,3.1.2,60
d,1,4.156999826,1,0,100,37,1,99,i17_150_R.jpg,d,150,AEB98,001,2020-12-20_10h25.30.885,MentalRotationFinal,3.1.2,60
d,1,1.409000158,1,0,100,48,1,99,i22_150_R.jpg,d,150,AEB98,001,2020-12-20_10h25.30.885,MentalRotationFinal,3.1.2,60
s,1,2.411999941,1,0,100,53,1,99,i25_0.jpg,s,0,AEB98,001,2020-12-20_10h25.30.885,MentalRotationFinal,3.1.2,60
d,0,1.512000084,1,0,100,64,1,99,i29_150.jpg,s,150,AEB98,001,2020-12-20_10h25.30.885,MentalRotationFinal,3.1.2,60
s,1,1.923000097,1,0,100,43,1,99,i20_50.jpg,s,50,AEB98,001,2020-12-20_10h25.30.885,MentalRotationFinal,3.1.2,60
s,1,1.582000017,1,0,100,29,1,99,i14_0.jpg,s,0,AEB98,001,2020-12-20_10h25.30.885,MentalRotationFinal,3.1.2,60
d,0,1.375,1,0,100,26,1,99,i12_100.jpg,s,100,AEB98,001,2020-12-20_10h25.30.885,MentalRotationFinal,3.1.2,60
s,0,1.722999811,1,0,100,59,1,99,i27_150_R.jpg,d,150,AEB98,001,2020-12-20_10h25.30.885,MentalRotationFinal,3.1.2,60
d,0,3.875999928,1,0,100,62,1,99,i29_0.jpg,s,0,AEB98,001,2020-12-20_10h25.30.885,MentalRotationFinal,3.1.2,60
s,1,1.647000074,1,0,100,22,1,99,i10_100.jpg,s,100,AEB98,001,2020-12-20_10h25.30.885,MentalRotationFinal,3.1.2,60
d,1,1.59800005,1,0,100,42,1,99,i19_150_R.jpg,d,150,AEB98,001,2020-12-20_10h25.30.885,MentalRotationFinal,3.1.2,60
