trialResp.keys,trialResp.corr,trialResp.rt,loop.thisRepN,loop.thisTrialN,loop.thisN,loop.thisIndex,loop.ran,loop.order,imagefile,corrAns,angle,participant,session,date,expName,psychopyVersion,frameRate
s,1,2.888000011,1,0,100,40,1,99,i19_0.jpg,s,0,gino,001,2020-05-05_15h24.07.503,MentalRotationFinal,3.1.2,60
d,1,5.388000011,1,0,100,76,1,99,i35_100_R.jpg,d,100,gino,001,2020-05-05_15h24.07.503,MentalRotationFinal,3.1.2,60
s,0,4.742000103,1,0,100,10,1,99,i5_50_R.jpg,d,50,gino,001,2020-05-05_15h24.07.503,MentalRotationFinal,3.1.2,60
d,1,5.973999977,1,0,100,32,1,99,i15_50_R.jpg,d,50,gino,001,2020-05-05_15h24.07.503,MentalRotationFinal,3.1.2,60
s,0,2.620999813,1,0,100,33,1,99,i15_150_R.jpg,d,150,gino,001,2020-05-05_15h24.07.503,MentalRotationFinal,3.1.2,60
d,1,6.023000002,1,0,100,3,1,99,i2_50_R.jpg,d,50,gino,001,2020-05-05_15h24.07.503,MentalRotationFinal,3.1.2,60
s,1,1.753999949,1,0,100,2,1,99,i1_100.jpg,s,100,gino,001,2020-05-05_15h24.07.503,MentalRotationFinal,3.1.2,60
d,1,3.921999931,1,0,100,80,1,99,i37_100_R.jpg,d,100,gino,001,2020-05-05_15h24.07.503,MentalRotationFinal,3.1.2,60
s,1,8.876999855,1,0,100,54,1,99,i25_50.jpg,s,50,gino,001,2020-05-05_15h24.07.503,MentalRotationFinal,3.1.2,60
d,1,4.740999937,1,0,100,73,1,99,i34_100_R.jpg,d,100,gino,001,2020-05-05_15h24.07.503,MentalRotationFinal,3.1.2,60
d,1,4.689999819,1,0,100,55,1,99,i25_150_R.jpg,d,150,gino,001,2020-05-05_15h24.07.503,MentalRotationFinal,3.1.2,60
s,1,8.710999966,1,0,100,53,1,99,i25_0.jpg,s,0,gino,001,2020-05-05_15h24.07.503,MentalRotationFinal,3.1.2,60
d,1,7.592000008,1,0,100,23,1,99,i11_50_R.jpg,d,50,gino,001,2020-05-05_15h24.07.503,MentalRotationFinal,3.1.2,60
d,1,5.505999804,1,0,100,35,1,99,i16_150_R.jpg,d,150,gino,001,2020-05-05_15h24.07.503,MentalRotationFinal,3.1.2,60
d,1,3.119999886,1,0,100,42,1,99,i19_150_R.jpg,d,150,gino,001,2020-05-05_15h24.07.503,MentalRotationFinal,3.1.2,60
d,1,2.438999891,1,0,100,67,1,99,i31_100_R.jpg,d,100,gino,001,2020-05-05_15h24.07.503,MentalRotationFinal,3.1.2,60
d,1,10.29400015,1,0,100,57,1,99,i26_150_R.jpg,d,150,gino,001,2020-05-05_15h24.07.503,MentalRotationFinal,3.1.2,60
s,1,5.424999952,1,0,100,72,1,99,i33_150.jpg,s,150,gino,001,2020-05-05_15h24.07.503,MentalRotationFinal,3.1.2,60
d,0,3.68900013,1,0,100,83,1,99,i38_150.jpg,s,150,gino,001,2020-05-05_15h24.07.503,MentalRotationFinal,3.1.2,60
s,1,6.742000103,1,0,100,36,1,99,i17_50.jpg,s,50,gino,001,2020-05-05_15h24.07.503,MentalRotationFinal,3.1.2,60
d,0,4.239000082,1,0,100,70,1,99,i32_150.jpg,s,150,gino,001,2020-05-05_15h24.07.503,MentalRotationFinal,3.1.2,60
d,1,2.436000109,1,0,100,14,1,99,i7_50_R.jpg,d,50,gino,001,2020-05-05_15h24.07.503,MentalRotationFinal,3.1.2,60
d,1,2.105999947,1,0,100,48,1,99,i22_150_R.jpg,d,150,gino,001,2020-05-05_15h24.07.503,MentalRotationFinal,3.1.2,60
d,1,4.938999891,1,0,100,16,1,99,i8_50_R.jpg,d,50,gino,001,2020-05-05_15h24.07.503,MentalRotationFinal,3.1.2,60
d,1,1.989000082,1,0,100,95,1,99,i44_100_R.jpg,d,100,gino,001,2020-05-05_15h24.07.503,MentalRotationFinal,3.1.2,60
s,1,1.503000021,1,0,100,38,1,99,i18_50.jpg,s,50,gino,001,2020-05-05_15h24.07.503,MentalRotationFinal,3.1.2,60
s,1,3.691999912,1,0,100,6,1,99,i3_100.jpg,s,100,gino,001,2020-05-05_15h24.07.503,MentalRotationFinal,3.1.2,60
s,1,2.052999973,1,0,100,65,1,99,i30_50.jpg,s,50,gino,001,2020-05-05_15h24.07.503,MentalRotationFinal,3.1.2,60
d,1,1.404000044,1,0,100,27,1,99,i13_50_R.jpg,d,50,gino,001,2020-05-05_15h24.07.503,MentalRotationFinal,3.1.2,60
d,1,5.957999945,1,0,100,59,1,99,i27_150_R.jpg,d,150,gino,001,2020-05-05_15h24.07.503,MentalRotationFinal,3.1.2,60
s,1,2.220999956,1,0,100,0,1,99,i1_0.jpg,s,0,gino,001,2020-05-05_15h24.07.503,MentalRotationFinal,3.1.2,60
d,1,1.936000109,1,0,100,91,1,99,i42_100_R.jpg,d,100,gino,001,2020-05-05_15h24.07.503,MentalRotationFinal,3.1.2,60
s,1,3.540999889,1,0,100,66,1,99,i30_150.jpg,s,150,gino,001,2020-05-05_15h24.07.503,MentalRotationFinal,3.1.2,60
s,1,2.286999941,1,0,100,9,1,99,i5_0.jpg,s,0,gino,001,2020-05-05_15h24.07.503,MentalRotationFinal,3.1.2,60
d,1,1.487999916,1,0,100,85,1,99,i39_100_R.jpg,d,100,gino,001,2020-05-05_15h24.07.503,MentalRotationFinal,3.1.2,60
d,0,4.754999876,1,0,100,68,1,99,i31_150.jpg,s,150,gino,001,2020-05-05_15h24.07.503,MentalRotationFinal,3.1.2,60
s,1,1.654000044,1,0,100,17,1,99,i8_100.jpg,s,100,gino,001,2020-05-05_15h24.07.503,MentalRotationFinal,3.1.2,60
s,1,0.985000134,1,0,100,62,1,99,i29_0.jpg,s,0,gino,001,2020-05-05_15h24.07.503,MentalRotationFinal,3.1.2,60
d,1,1.503000021,1,0,100,30,1,99,i14_50_R.jpg,d,50,gino,001,2020-05-05_15h24.07.503,MentalRotationFinal,3.1.2,60
d,1,2.822999954,1,0,100,82,1,99,i38_100_R.jpg,d,100,gino,001,2020-05-05_15h24.07.503,MentalRotationFinal,3.1.2,60
s,1,1.186000109,1,0,100,49,1,99,i23_50.jpg,s,50,gino,001,2020-05-05_15h24.07.503,MentalRotationFinal,3.1.2,60
d,1,5.539999962,1,0,100,50,1,99,i23_150_R.jpg,d,150,gino,001,2020-05-05_15h24.07.503,MentalRotationFinal,3.1.2,60
s,1,1.21999979,1,0,100,94,1,99,i44_0.jpg,s,0,gino,001,2020-05-05_15h24.07.503,MentalRotationFinal,3.1.2,60
s,1,2.120999813,1,0,100,99,1,99,i48_100.jpg,s,100,gino,001,2020-05-05_15h24.07.503,MentalRotationFinal,3.1.2,60
s,1,1.854000092,1,0,100,63,1,99,i29_50.jpg,s,50,gino,001,2020-05-05_15h24.07.503,MentalRotationFinal,3.1.2,60
d,1,1.720999956,1,0,100,1,1,99,i1_50_R.jpg,d,50,gino,001,2020-05-05_15h24.07.503,MentalRotationFinal,3.1.2,60
d,1,3.105000019,1,0,100,87,1,99,i40_100_R.jpg,d,100,gino,001,2020-05-05_15h24.07.503,MentalRotationFinal,3.1.2,60
d,1,2.470999956,1,0,100,96,1,99,i45_100_R.jpg,d,100,gino,001,2020-05-05_15h24.07.503,MentalRotationFinal,3.1.2,60
d,0,2.604000092,1,0,100,24,1,99,i11_100.jpg,s,100,gino,001,2020-05-05_15h24.07.503,MentalRotationFinal,3.1.2,60
d,1,5.289000034,1,0,100,78,1,99,i36_100_R.jpg,d,100,gino,001,2020-05-05_15h24.07.503,MentalRotationFinal,3.1.2,60
d,1,2.99000001,1,0,100,21,1,99,i10_50_R.jpg,d,50,gino,001,2020-05-05_15h24.07.503,MentalRotationFinal,3.1.2,60
d,0,2.853999853,1,0,100,92,1,99,i42_150.jpg,s,150,gino,001,2020-05-05_15h24.07.503,MentalRotationFinal,3.1.2,60
d,0,6.457000017,1,0,100,77,1,99,i35_150.jpg,s,150,gino,001,2020-05-05_15h24.07.503,MentalRotationFinal,3.1.2,60
s,1,2.472000122,1,0,100,56,1,99,i26_50.jpg,s,50,gino,001,2020-05-05_15h24.07.503,MentalRotationFinal,3.1.2,60
s,1,1.786999941,1,0,100,74,1,99,i34_150.jpg,s,150,gino,001,2020-05-05_15h24.07.503,MentalRotationFinal,3.1.2,60
s,1,8.375,1,0,100,88,1,99,i40_150.jpg,s,150,gino,001,2020-05-05_15h24.07.503,MentalRotationFinal,3.1.2,60
s,1,2.306999922,1,0,100,26,1,99,i12_100.jpg,s,100,gino,001,2020-05-05_15h24.07.503,MentalRotationFinal,3.1.2,60
d,1,1.519000053,1,0,100,89,1,99,i41_100_R.jpg,d,100,gino,001,2020-05-05_15h24.07.503,MentalRotationFinal,3.1.2,60
d,1,2.105999947,1,0,100,25,1,99,i12_50_R.jpg,d,50,gino,001,2020-05-05_15h24.07.503,MentalRotationFinal,3.1.2,60
d,1,2.520999908,1,0,100,69,1,99,i32_100_R.jpg,d,100,gino,001,2020-05-05_15h24.07.503,MentalRotationFinal,3.1.2,60
s,1,1.154000044,1,0,100,34,1,99,i16_50.jpg,s,50,gino,001,2020-05-05_15h24.07.503,MentalRotationFinal,3.1.2,60
s,1,6.125,1,0,100,20,1,99,i9_100.jpg,s,100,gino,001,2020-05-05_15h24.07.503,MentalRotationFinal,3.1.2,60
s,1,3.871999979,1,0,100,43,1,99,i20_50.jpg,s,50,gino,001,2020-05-05_15h24.07.503,MentalRotationFinal,3.1.2,60
s,1,2.704999924,1,0,100,97,1,99,i46_100.jpg,s,100,gino,001,2020-05-05_15h24.07.503,MentalRotationFinal,3.1.2,60
d,1,2.152999878,1,0,100,12,1,99,i6_50_R.jpg,d,50,gino,001,2020-05-05_15h24.07.503,MentalRotationFinal,3.1.2,60
s,1,6.174000025,1,0,100,81,1,99,i37_150.jpg,s,150,gino,001,2020-05-05_15h24.07.503,MentalRotationFinal,3.1.2,60
s,1,1.036999941,1,0,100,84,1,99,i39_0.jpg,s,0,gino,001,2020-05-05_15h24.07.503,MentalRotationFinal,3.1.2,60
d,1,2.205000162,1,0,100,7,1,99,i4_50_R.jpg,d,50,gino,001,2020-05-05_15h24.07.503,MentalRotationFinal,3.1.2,60
s,1,1.487999916,1,0,100,47,1,99,i22_50.jpg,s,50,gino,001,2020-05-05_15h24.07.503,MentalRotationFinal,3.1.2,60
s,1,1.986999989,1,0,100,75,1,99,i35_0.jpg,s,0,gino,001,2020-05-05_15h24.07.503,MentalRotationFinal,3.1.2,60
s,1,3.154999971,1,0,100,15,1,99,i7_100.jpg,s,100,gino,001,2020-05-05_15h24.07.503,MentalRotationFinal,3.1.2,60
d,1,4.90500021,1,0,100,5,1,99,i3_50_R.jpg,d,50,gino,001,2020-05-05_15h24.07.503,MentalRotationFinal,3.1.2,60
s,1,2.121999979,1,0,100,45,1,99,i21_50.jpg,s,50,gino,001,2020-05-05_15h24.07.503,MentalRotationFinal,3.1.2,60
d,0,4.472999811,1,0,100,11,1,99,i5_100.jpg,s,100,gino,001,2020-05-05_15h24.07.503,MentalRotationFinal,3.1.2,60
d,0,2.854999781,1,0,100,8,1,99,i4_100.jpg,s,100,gino,001,2020-05-05_15h24.07.503,MentalRotationFinal,3.1.2,60
s,1,1.553999901,1,0,100,29,1,99,i14_0.jpg,s,0,gino,001,2020-05-05_15h24.07.503,MentalRotationFinal,3.1.2,60
s,1,1.587000132,1,0,100,58,1,99,i27_50.jpg,s,50,gino,001,2020-05-05_15h24.07.503,MentalRotationFinal,3.1.2,60
s,1,0.920000076,1,0,100,51,1,99,i24_50.jpg,s,50,gino,001,2020-05-05_15h24.07.503,MentalRotationFinal,3.1.2,60
s,1,2.288000107,1,0,100,90,1,99,i41_150.jpg,s,150,gino,001,2020-05-05_15h24.07.503,MentalRotationFinal,3.1.2,60
s,1,1.052999973,1,0,100,18,1,99,i9_0.jpg,s,0,gino,001,2020-05-05_15h24.07.503,MentalRotationFinal,3.1.2,60
d,1,2.21999979,1,0,100,19,1,99,i9_50_R.jpg,d,50,gino,001,2020-05-05_15h24.07.503,MentalRotationFinal,3.1.2,60
s,1,2.371000051,1,0,100,61,1,99,i28_150.jpg,s,150,gino,001,2020-05-05_15h24.07.503,MentalRotationFinal,3.1.2,60
s,1,4.142000198,1,0,100,64,1,99,i29_150.jpg,s,150,gino,001,2020-05-05_15h24.07.503,MentalRotationFinal,3.1.2,60
d,0,2.921999931,1,0,100,13,1,99,i6_100.jpg,s,100,gino,001,2020-05-05_15h24.07.503,MentalRotationFinal,3.1.2,60
d,1,4.68900013,1,0,100,71,1,99,i33_100_R.jpg,d,100,gino,001,2020-05-05_15h24.07.503,MentalRotationFinal,3.1.2,60
s,1,2.858999968,1,0,100,4,1,99,i2_100.jpg,s,100,gino,001,2020-05-05_15h24.07.503,MentalRotationFinal,3.1.2,60
d,1,1.819999933,1,0,100,52,1,99,i24_150_R.jpg,d,150,gino,001,2020-05-05_15h24.07.503,MentalRotationFinal,3.1.2,60
d,1,1.736999989,1,0,100,46,1,99,i21_150_R.jpg,d,150,gino,001,2020-05-05_15h24.07.503,MentalRotationFinal,3.1.2,60
d,1,3.422999859,1,0,100,93,1,99,i43_100_R.jpg,d,100,gino,001,2020-05-05_15h24.07.503,MentalRotationFinal,3.1.2,60
s,1,2.121000051,1,0,100,98,1,99,i47_100.jpg,s,100,gino,001,2020-05-05_15h24.07.503,MentalRotationFinal,3.1.2,60
s,1,2.705000162,1,0,100,79,1,99,i36_150.jpg,s,150,gino,001,2020-05-05_15h24.07.503,MentalRotationFinal,3.1.2,60
s,0,3.903000116,1,0,100,44,1,99,i20_150_R.jpg,d,150,gino,001,2020-05-05_15h24.07.503,MentalRotationFinal,3.1.2,60
s,1,2.736999989,1,0,100,86,1,99,i39_150.jpg,s,150,gino,001,2020-05-05_15h24.07.503,MentalRotationFinal,3.1.2,60
s,1,1.488000154,1,0,100,41,1,99,i19_50.jpg,s,50,gino,001,2020-05-05_15h24.07.503,MentalRotationFinal,3.1.2,60
d,1,3.756000042,1,0,100,37,1,99,i17_150_R.jpg,d,150,gino,001,2020-05-05_15h24.07.503,MentalRotationFinal,3.1.2,60
s,1,1.187999964,1,0,100,60,1,99,i28_50.jpg,s,50,gino,001,2020-05-05_15h24.07.503,MentalRotationFinal,3.1.2,60
s,0,2.555000067,1,0,100,39,1,99,i18_150_R.jpg,d,150,gino,001,2020-05-05_15h24.07.503,MentalRotationFinal,3.1.2,60
s,1,3.605000019,1,0,100,22,1,99,i10_100.jpg,s,100,gino,001,2020-05-05_15h24.07.503,MentalRotationFinal,3.1.2,60
d,1,2.286999941,1,0,100,28,1,99,i13_150_R.jpg,d,150,gino,001,2020-05-05_15h24.07.503,MentalRotationFinal,3.1.2,60
s,0,4.138000011,1,0,100,31,1,99,i14_150_R.jpg,d,150,gino,001,2020-05-05_15h24.07.503,MentalRotationFinal,3.1.2,60
