trialResp.keys,trialResp.corr,trialResp.rt,loop.thisRepN,loop.thisTrialN,loop.thisN,loop.thisIndex,loop.ran,loop.order,imagefile,corrAns,angle,participant,session,date,expName,psychopyVersion,frameRate
s,1,7.002999783,1,0,100,63,1,99,i29_50.jpg,s,50,pp,001,2020-10-11_11h46.30.902,MentalRotationFinal,3.1.2,60
s,1,3.950000048,1,0,100,45,1,99,i21_50.jpg,s,50,pp,001,2020-10-11_11h46.30.902,MentalRotationFinal,3.1.2,60
s,1,4.36500001,1,0,100,4,1,99,i2_100.jpg,s,100,pp,001,2020-10-11_11h46.30.902,MentalRotationFinal,3.1.2,60
s,1,5.461999893,1,0,100,72,1,99,i33_150.jpg,s,150,pp,001,2020-10-11_11h46.30.902,MentalRotationFinal,3.1.2,60
d,0,5.189999819,1,0,100,86,1,99,i39_150.jpg,s,150,pp,001,2020-10-11_11h46.30.902,MentalRotationFinal,3.1.2,60
d,0,0.108999968,1,0,100,75,1,99,i35_0.jpg,s,0,pp,001,2020-10-11_11h46.30.902,MentalRotationFinal,3.1.2,60
d,1,6.684999943,1,0,100,32,1,99,i15_50_R.jpg,d,50,pp,001,2020-10-11_11h46.30.902,MentalRotationFinal,3.1.2,60
s,1,3.422999859,1,0,100,79,1,99,i36_150.jpg,s,150,pp,001,2020-10-11_11h46.30.902,MentalRotationFinal,3.1.2,60
d,1,2.854999781,1,0,100,87,1,99,i40_100_R.jpg,d,100,pp,001,2020-10-11_11h46.30.902,MentalRotationFinal,3.1.2,60
d,1,5.028000116,1,0,100,93,1,99,i43_100_R.jpg,d,100,pp,001,2020-10-11_11h46.30.902,MentalRotationFinal,3.1.2,60
s,1,1.679000139,1,0,100,56,1,99,i26_50.jpg,s,50,pp,001,2020-10-11_11h46.30.902,MentalRotationFinal,3.1.2,60
s,1,4.463000059,1,0,100,98,1,99,i47_100.jpg,s,100,pp,001,2020-10-11_11h46.30.902,MentalRotationFinal,3.1.2,60
d,1,3.404999971,1,0,100,42,1,99,i19_150_R.jpg,d,150,pp,001,2020-10-11_11h46.30.902,MentalRotationFinal,3.1.2,60
s,1,2.421999931,1,0,100,36,1,99,i17_50.jpg,s,50,pp,001,2020-10-11_11h46.30.902,MentalRotationFinal,3.1.2,60
d,1,1.49000001,1,0,100,1,1,99,i1_50_R.jpg,d,50,pp,001,2020-10-11_11h46.30.902,MentalRotationFinal,3.1.2,60
d,1,1.378999949,1,0,100,27,1,99,i13_50_R.jpg,d,50,pp,001,2020-10-11_11h46.30.902,MentalRotationFinal,3.1.2,60
d,1,3.549999952,1,0,100,82,1,99,i38_100_R.jpg,d,100,pp,001,2020-10-11_11h46.30.902,MentalRotationFinal,3.1.2,60
s,1,1.299999952,1,0,100,65,1,99,i30_50.jpg,s,50,pp,001,2020-10-11_11h46.30.902,MentalRotationFinal,3.1.2,60
s,1,1.041000128,1,0,100,0,1,99,i1_0.jpg,s,0,pp,001,2020-10-11_11h46.30.902,MentalRotationFinal,3.1.2,60
s,1,1.861000061,1,0,100,47,1,99,i22_50.jpg,s,50,pp,001,2020-10-11_11h46.30.902,MentalRotationFinal,3.1.2,60
s,1,3.595000029,1,0,100,61,1,99,i28_150.jpg,s,150,pp,001,2020-10-11_11h46.30.902,MentalRotationFinal,3.1.2,60
s,1,4.171000004,1,0,100,8,1,99,i4_100.jpg,s,100,pp,001,2020-10-11_11h46.30.902,MentalRotationFinal,3.1.2,60
d,1,2.237000227,1,0,100,89,1,99,i41_100_R.jpg,d,100,pp,001,2020-10-11_11h46.30.902,MentalRotationFinal,3.1.2,60
d,0,3.407000065,1,0,100,88,1,99,i40_150.jpg,s,150,pp,001,2020-10-11_11h46.30.902,MentalRotationFinal,3.1.2,60
d,1,3.223999977,1,0,100,5,1,99,i3_50_R.jpg,d,50,pp,001,2020-10-11_11h46.30.902,MentalRotationFinal,3.1.2,60
d,1,2.488999844,1,0,100,95,1,99,i44_100_R.jpg,d,100,pp,001,2020-10-11_11h46.30.902,MentalRotationFinal,3.1.2,60
d,1,3.078999996,1,0,100,67,1,99,i31_100_R.jpg,d,100,pp,001,2020-10-11_11h46.30.902,MentalRotationFinal,3.1.2,60
s,1,2.924000025,1,0,100,11,1,99,i5_100.jpg,s,100,pp,001,2020-10-11_11h46.30.902,MentalRotationFinal,3.1.2,60
s,1,1.288000107,1,0,100,53,1,99,i25_0.jpg,s,0,pp,001,2020-10-11_11h46.30.902,MentalRotationFinal,3.1.2,60
d,1,2.592000008,1,0,100,25,1,99,i12_50_R.jpg,d,50,pp,001,2020-10-11_11h46.30.902,MentalRotationFinal,3.1.2,60
d,1,2.221999884,1,0,100,3,1,99,i2_50_R.jpg,d,50,pp,001,2020-10-11_11h46.30.902,MentalRotationFinal,3.1.2,60
s,1,2.160000086,1,0,100,92,1,99,i42_150.jpg,s,150,pp,001,2020-10-11_11h46.30.902,MentalRotationFinal,3.1.2,60
s,1,2.481999874,1,0,100,41,1,99,i19_50.jpg,s,50,pp,001,2020-10-11_11h46.30.902,MentalRotationFinal,3.1.2,60
s,1,5.460000038,1,0,100,74,1,99,i34_150.jpg,s,150,pp,001,2020-10-11_11h46.30.902,MentalRotationFinal,3.1.2,60
d,1,4.046000004,1,0,100,46,1,99,i21_150_R.jpg,d,150,pp,001,2020-10-11_11h46.30.902,MentalRotationFinal,3.1.2,60
s,1,4.677000046,1,0,100,64,1,99,i29_150.jpg,s,150,pp,001,2020-10-11_11h46.30.902,MentalRotationFinal,3.1.2,60
d,1,4.279999971,1,0,100,91,1,99,i42_100_R.jpg,d,100,pp,001,2020-10-11_11h46.30.902,MentalRotationFinal,3.1.2,60
d,1,2.532000065,1,0,100,39,1,99,i18_150_R.jpg,d,150,pp,001,2020-10-11_11h46.30.902,MentalRotationFinal,3.1.2,60
s,1,4.157999992,1,0,100,97,1,99,i46_100.jpg,s,100,pp,001,2020-10-11_11h46.30.902,MentalRotationFinal,3.1.2,60
d,1,2.004999876,1,0,100,85,1,99,i39_100_R.jpg,d,100,pp,001,2020-10-11_11h46.30.902,MentalRotationFinal,3.1.2,60
s,1,3.275000095,1,0,100,20,1,99,i9_100.jpg,s,100,pp,001,2020-10-11_11h46.30.902,MentalRotationFinal,3.1.2,60
d,1,3.988999844,1,0,100,78,1,99,i36_100_R.jpg,d,100,pp,001,2020-10-11_11h46.30.902,MentalRotationFinal,3.1.2,60
d,1,6.661000013,1,0,100,7,1,99,i4_50_R.jpg,d,50,pp,001,2020-10-11_11h46.30.902,MentalRotationFinal,3.1.2,60
s,1,3.242000103,1,0,100,66,1,99,i30_150.jpg,s,150,pp,001,2020-10-11_11h46.30.902,MentalRotationFinal,3.1.2,60
d,1,6.516000032,1,0,100,21,1,99,i10_50_R.jpg,d,50,pp,001,2020-10-11_11h46.30.902,MentalRotationFinal,3.1.2,60
s,1,2.169000149,1,0,100,2,1,99,i1_100.jpg,s,100,pp,001,2020-10-11_11h46.30.902,MentalRotationFinal,3.1.2,60
d,1,3.296000004,1,0,100,19,1,99,i9_50_R.jpg,d,50,pp,001,2020-10-11_11h46.30.902,MentalRotationFinal,3.1.2,60
s,1,3.546000004,1,0,100,22,1,99,i10_100.jpg,s,100,pp,001,2020-10-11_11h46.30.902,MentalRotationFinal,3.1.2,60
s,1,1.844000101,1,0,100,26,1,99,i12_100.jpg,s,100,pp,001,2020-10-11_11h46.30.902,MentalRotationFinal,3.1.2,60
d,1,3.625999928,1,0,100,96,1,99,i45_100_R.jpg,d,100,pp,001,2020-10-11_11h46.30.902,MentalRotationFinal,3.1.2,60
s,1,6.618000031,1,0,100,54,1,99,i25_50.jpg,s,50,pp,001,2020-10-11_11h46.30.902,MentalRotationFinal,3.1.2,60
d,1,9.010999918,1,0,100,59,1,99,i27_150_R.jpg,d,150,pp,001,2020-10-11_11h46.30.902,MentalRotationFinal,3.1.2,60
d,1,5.148000002,1,0,100,69,1,99,i32_100_R.jpg,d,100,pp,001,2020-10-11_11h46.30.902,MentalRotationFinal,3.1.2,60
d,1,6.293000221,1,0,100,76,1,99,i35_100_R.jpg,d,100,pp,001,2020-10-11_11h46.30.902,MentalRotationFinal,3.1.2,60
s,1,2.078000069,1,0,100,60,1,99,i28_50.jpg,s,50,pp,001,2020-10-11_11h46.30.902,MentalRotationFinal,3.1.2,60
s,1,1.205000162,1,0,100,38,1,99,i18_50.jpg,s,50,pp,001,2020-10-11_11h46.30.902,MentalRotationFinal,3.1.2,60
s,1,0.851999998,1,0,100,40,1,99,i19_0.jpg,s,0,pp,001,2020-10-11_11h46.30.902,MentalRotationFinal,3.1.2,60
d,1,3.437999964,1,0,100,73,1,99,i34_100_R.jpg,d,100,pp,001,2020-10-11_11h46.30.902,MentalRotationFinal,3.1.2,60
s,1,1.661999941,1,0,100,90,1,99,i41_150.jpg,s,150,pp,001,2020-10-11_11h46.30.902,MentalRotationFinal,3.1.2,60
s,1,2.554999828,1,0,100,18,1,99,i9_0.jpg,s,0,pp,001,2020-10-11_11h46.30.902,MentalRotationFinal,3.1.2,60
s,1,8.86500001,1,0,100,99,1,99,i48_100.jpg,s,100,pp,001,2020-10-11_11h46.30.902,MentalRotationFinal,3.1.2,60
d,1,2.370999813,1,0,100,14,1,99,i7_50_R.jpg,d,50,pp,001,2020-10-11_11h46.30.902,MentalRotationFinal,3.1.2,60
d,1,6.152000189,1,0,100,44,1,99,i20_150_R.jpg,d,150,pp,001,2020-10-11_11h46.30.902,MentalRotationFinal,3.1.2,60
s,1,1.772000074,1,0,100,43,1,99,i20_50.jpg,s,50,pp,001,2020-10-11_11h46.30.902,MentalRotationFinal,3.1.2,60
s,1,2.773999929,1,0,100,58,1,99,i27_50.jpg,s,50,pp,001,2020-10-11_11h46.30.902,MentalRotationFinal,3.1.2,60
d,1,2.394999981,1,0,100,35,1,99,i16_150_R.jpg,d,150,pp,001,2020-10-11_11h46.30.902,MentalRotationFinal,3.1.2,60
d,1,2.044000149,1,0,100,52,1,99,i24_150_R.jpg,d,150,pp,001,2020-10-11_11h46.30.902,MentalRotationFinal,3.1.2,60
s,1,1.93599987,1,0,100,51,1,99,i24_50.jpg,s,50,pp,001,2020-10-11_11h46.30.902,MentalRotationFinal,3.1.2,60
d,1,1.986000061,1,0,100,71,1,99,i33_100_R.jpg,d,100,pp,001,2020-10-11_11h46.30.902,MentalRotationFinal,3.1.2,60
s,1,3.809999943,1,0,100,6,1,99,i3_100.jpg,s,100,pp,001,2020-10-11_11h46.30.902,MentalRotationFinal,3.1.2,60
d,1,2.054000139,1,0,100,57,1,99,i26_150_R.jpg,d,150,pp,001,2020-10-11_11h46.30.902,MentalRotationFinal,3.1.2,60
s,1,6.625999928,1,0,100,81,1,99,i37_150.jpg,s,150,pp,001,2020-10-11_11h46.30.902,MentalRotationFinal,3.1.2,60
d,1,1.960000038,1,0,100,28,1,99,i13_150_R.jpg,d,150,pp,001,2020-10-11_11h46.30.902,MentalRotationFinal,3.1.2,60
s,1,1.409999847,1,0,100,84,1,99,i39_0.jpg,s,0,pp,001,2020-10-11_11h46.30.902,MentalRotationFinal,3.1.2,60
d,1,2.078999996,1,0,100,23,1,99,i11_50_R.jpg,d,50,pp,001,2020-10-11_11h46.30.902,MentalRotationFinal,3.1.2,60
d,1,2.917999983,1,0,100,33,1,99,i15_150_R.jpg,d,150,pp,001,2020-10-11_11h46.30.902,MentalRotationFinal,3.1.2,60
s,1,4.121999979,1,0,100,77,1,99,i35_150.jpg,s,150,pp,001,2020-10-11_11h46.30.902,MentalRotationFinal,3.1.2,60
s,1,2.379999876,1,0,100,15,1,99,i7_100.jpg,s,100,pp,001,2020-10-11_11h46.30.902,MentalRotationFinal,3.1.2,60
s,1,1.184000015,1,0,100,62,1,99,i29_0.jpg,s,0,pp,001,2020-10-11_11h46.30.902,MentalRotationFinal,3.1.2,60
s,1,2.061000109,1,0,100,70,1,99,i32_150.jpg,s,150,pp,001,2020-10-11_11h46.30.902,MentalRotationFinal,3.1.2,60
s,1,1.68900013,1,0,100,34,1,99,i16_50.jpg,s,50,pp,001,2020-10-11_11h46.30.902,MentalRotationFinal,3.1.2,60
s,1,1.000999928,1,0,100,9,1,99,i5_0.jpg,s,0,pp,001,2020-10-11_11h46.30.902,MentalRotationFinal,3.1.2,60
d,1,3.406000137,1,0,100,37,1,99,i17_150_R.jpg,d,150,pp,001,2020-10-11_11h46.30.902,MentalRotationFinal,3.1.2,60
d,1,5.791999817,1,0,100,16,1,99,i8_50_R.jpg,d,50,pp,001,2020-10-11_11h46.30.902,MentalRotationFinal,3.1.2,60
d,1,1.512000084,1,0,100,12,1,99,i6_50_R.jpg,d,50,pp,001,2020-10-11_11h46.30.902,MentalRotationFinal,3.1.2,60
d,1,3.549000025,1,0,100,30,1,99,i14_50_R.jpg,d,50,pp,001,2020-10-11_11h46.30.902,MentalRotationFinal,3.1.2,60
s,1,2.261000156,1,0,100,24,1,99,i11_100.jpg,s,100,pp,001,2020-10-11_11h46.30.902,MentalRotationFinal,3.1.2,60
s,1,1.671999931,1,0,100,17,1,99,i8_100.jpg,s,100,pp,001,2020-10-11_11h46.30.902,MentalRotationFinal,3.1.2,60
s,1,1.059999943,1,0,100,29,1,99,i14_0.jpg,s,0,pp,001,2020-10-11_11h46.30.902,MentalRotationFinal,3.1.2,60
d,1,3.207999945,1,0,100,10,1,99,i5_50_R.jpg,d,50,pp,001,2020-10-11_11h46.30.902,MentalRotationFinal,3.1.2,60
d,1,1.628000021,1,0,100,48,1,99,i22_150_R.jpg,d,150,pp,001,2020-10-11_11h46.30.902,MentalRotationFinal,3.1.2,60
d,1,4.661000013,1,0,100,50,1,99,i23_150_R.jpg,d,150,pp,001,2020-10-11_11h46.30.902,MentalRotationFinal,3.1.2,60
s,1,2.256000042,1,0,100,83,1,99,i38_150.jpg,s,150,pp,001,2020-10-11_11h46.30.902,MentalRotationFinal,3.1.2,60
s,1,2.575000048,1,0,100,13,1,99,i6_100.jpg,s,100,pp,001,2020-10-11_11h46.30.902,MentalRotationFinal,3.1.2,60
d,1,2.963000059,1,0,100,80,1,99,i37_100_R.jpg,d,100,pp,001,2020-10-11_11h46.30.902,MentalRotationFinal,3.1.2,60
s,1,1.086999893,1,0,100,94,1,99,i44_0.jpg,s,0,pp,001,2020-10-11_11h46.30.902,MentalRotationFinal,3.1.2,60
d,1,3.023000002,1,0,100,31,1,99,i14_150_R.jpg,d,150,pp,001,2020-10-11_11h46.30.902,MentalRotationFinal,3.1.2,60
d,1,4.924999952,1,0,100,55,1,99,i25_150_R.jpg,d,150,pp,001,2020-10-11_11h46.30.902,MentalRotationFinal,3.1.2,60
s,1,2.489000082,1,0,100,49,1,99,i23_50.jpg,s,50,pp,001,2020-10-11_11h46.30.902,MentalRotationFinal,3.1.2,60
d,0,4.653000116,1,0,100,68,1,99,i31_150.jpg,s,150,pp,001,2020-10-11_11h46.30.902,MentalRotationFinal,3.1.2,60
